"Block"	"Trial"	"FaceFilename"	"WordFilename"	"Race"	"Fix"	"WordValence"	"Familiar"	"Condition"	"RT"	"Key"	"Error"	"ID"	"race"	"fixation"
1	1	""	"romance"	NA	""	2	NA	NA	3753	2	NA	1	NA	NA
1	2	""	"pest"	NA	""	1	NA	NA	874	1	NA	1	NA	NA
1	3	""	"despair"	NA	""	1	NA	NA	1277	1	NA	1	NA	NA
1	4	""	"success"	NA	""	2	NA	NA	568	2	NA	1	NA	NA
1	5	""	"vacation"	NA	""	2	NA	NA	665	2	NA	1	NA	NA
1	6	""	"joy"	NA	""	2	NA	NA	526	2	NA	1	NA	NA
1	7	""	"smile"	NA	""	2	NA	NA	577	2	NA	1	NA	NA
1	8	""	"cockroach"	NA	""	1	NA	NA	593	1	NA	1	NA	NA
1	9	""	"garbage"	NA	""	1	NA	NA	569	1	NA	1	NA	NA
1	10	""	"vacation"	NA	""	2	NA	NA	650	2	NA	1	NA	NA
1	11	""	"disgust"	NA	""	1	NA	NA	824	1	NA	1	NA	NA
1	12	""	"garbage"	NA	""	1	NA	NA	589	1	NA	1	NA	NA
1	13	""	"sewage"	NA	""	1	NA	NA	517	1	NA	1	NA	NA
1	14	""	"beauty"	NA	""	2	NA	NA	552	2	NA	1	NA	NA
1	15	""	"poison"	NA	""	1	NA	NA	2274	1	NA	1	NA	NA
1	16	""	"pest"	NA	""	1	NA	NA	689	1	NA	1	NA	NA
1	17	""	"joy"	NA	""	2	NA	NA	637	2	NA	1	NA	NA
1	18	""	"despair"	NA	""	1	NA	NA	1155	1	NA	1	NA	NA
1	19	""	"love"	NA	""	2	NA	NA	586	2	NA	1	NA	NA
1	20	""	"love"	NA	""	2	NA	NA	419	2	NA	1	NA	NA
1	21	""	"beauty"	NA	""	2	NA	NA	554	2	NA	1	NA	NA
1	22	""	"paradise"	NA	""	2	NA	NA	755	2	NA	1	NA	NA
1	23	""	"smile"	NA	""	2	NA	NA	764	2	NA	1	NA	NA
1	24	""	"success"	NA	""	2	NA	NA	477	2	NA	1	NA	NA
1	25	""	"vomit"	NA	""	1	NA	NA	610	1	NA	1	NA	NA
1	26	""	"cockroach"	NA	""	1	NA	NA	593	1	NA	1	NA	NA
1	27	""	"paradise"	NA	""	2	NA	NA	593	2	NA	1	NA	NA
1	28	""	"romance"	NA	""	2	NA	NA	585	2	NA	1	NA	NA
1	29	""	"vomit"	NA	""	1	NA	NA	569	1	NA	1	NA	NA
1	30	""	"sewage"	NA	""	1	NA	NA	506	1	NA	1	NA	NA
1	31	""	"poison"	NA	""	1	NA	NA	445	1	NA	1	NA	NA
1	32	""	"disgust"	NA	""	1	NA	NA	716	1	NA	1	NA	NA
2	1	"C:\Hannah's FYP\Black22_neu.jpg"	"joy"	1	"forehead"	2	NA	112	1343	2	0	1	"Black"	"nose"
2	2	"C:\Hannah's FYP\White15_neu.jpg"	"sewage"	2	"forehead"	1	NA	211	671	1	0	1	"White"	"eyes"
2	3	"C:\Hannah's FYP\Black16_neu.jpg"	"despair"	1	"forehead"	1	NA	111	788	1	0	1	"Black"	"eyes"
2	4	"C:\Hannah's FYP\Black17_neu.jpg"	"despair"	1	"forehead"	1	NA	111	818	1	0	1	"Black"	"nose"
2	5	"C:\Hannah's FYP\Black9_neu.jpg"	"joy"	1	"forehead"	2	NA	112	544	2	0	1	"Black"	"eyes"
2	6	"C:\Hannah's FYP\White9_neu.jpg"	"disgust"	2	"forehead"	1	NA	211	835	1	0	1	"White"	"eyes"
2	7	"C:\Hannah's FYP\Black14_neu.jpg"	"cockroach"	1	"forehead"	1	NA	111	832	1	0	1	"Black"	"eyes"
2	8	"C:\Hannah's FYP\Black2_neu.jpg"	"cockroach"	1	"forehead"	1	NA	111	639	1	0	1	"Black"	"forehead"
2	9	"C:\Hannah's FYP\Black10_neu.jpg"	"success"	1	"forehead"	2	NA	112	918	2	0	1	"Black"	"eyes"
2	10	"C:\Hannah's FYP\White6_neu.jpg"	"disgust"	2	"forehead"	1	NA	211	1848	1	0	1	"White"	"forehead"
2	11	"C:\Hannah's FYP\White18_neu.jpg"	"pest"	2	"forehead"	1	NA	211	976	1	0	1	"White"	"nose"
2	12	"C:\Hannah's FYP\White21_neu.jpg"	"vomit"	2	"forehead"	1	NA	211	717	1	0	1	"White"	"nose"
2	13	"C:\Hannah's FYP\White8_neu.jpg"	"pest"	2	"forehead"	1	NA	211	849	1	0	1	"White"	"forehead"
2	14	"C:\Hannah's FYP\Black5_neu.jpg"	"smile"	1	"forehead"	2	NA	112	1119	2	0	1	"Black"	"forehead"
2	15	"C:\Hannah's FYP\Black17_neu.jpg"	"pest"	1	"forehead"	1	NA	111	879	1	0	1	"Black"	"nose"
2	16	"C:\Hannah's FYP\Black17_neu.jpg"	"love"	1	"forehead"	2	NA	112	689	2	0	1	"Black"	"nose"
2	17	"C:\Hannah's FYP\White11_neu.jpg"	"garbage"	2	"forehead"	1	NA	211	789	1	0	1	"White"	"eyes"
2	18	"C:\Hannah's FYP\Black11_neu.jpg"	"romance"	1	"forehead"	2	NA	112	2014	2	0	1	"Black"	"eyes"
2	19	"C:\Hannah's FYP\Black23_neu.jpg"	"poison"	1	"forehead"	1	NA	111	766	1	0	1	"Black"	"nose"
2	20	"C:\Hannah's FYP\Black11_neu.jpg"	"sewage"	1	"forehead"	1	NA	111	656	1	0	1	"Black"	"eyes"
2	21	"C:\Hannah's FYP\Black10_neu.jpg"	"poison"	1	"forehead"	1	NA	111	1278	1	0	1	"Black"	"eyes"
2	22	"C:\Hannah's FYP\White8_neu.jpg"	"success"	2	"forehead"	2	NA	212	738	2	0	1	"White"	"forehead"
2	23	"C:\Hannah's FYP\Black9_neu.jpg"	"cockroach"	1	"forehead"	1	NA	111	700	1	0	1	"Black"	"eyes"
2	24	"C:\Hannah's FYP\Black20_neu.jpg"	"poison"	1	"forehead"	1	NA	111	780	1	0	1	"Black"	"nose"
2	25	"C:\Hannah's FYP\Black9_neu.jpg"	"vacation"	1	"forehead"	2	NA	112	693	2	0	1	"Black"	"eyes"
2	26	"C:\Hannah's FYP\White23_neu.jpg"	"vacation"	2	"forehead"	2	NA	212	998	2	0	1	"White"	"nose"
2	27	"C:\Hannah's FYP\White13_neu.jpg"	"vacation"	2	"forehead"	2	NA	212	654	2	0	1	"White"	"eyes"
2	28	"C:\Hannah's FYP\Black21_neu.jpg"	"garbage"	1	"forehead"	1	NA	111	664	1	0	1	"Black"	"nose"
2	29	"C:\Hannah's FYP\White24_neu.jpg"	"cockroach"	2	"forehead"	1	NA	211	614	1	0	1	"White"	"nose"
2	30	"C:\Hannah's FYP\White1_neu.jpg"	"disgust"	2	"forehead"	1	NA	211	790	1	0	1	"White"	"forehead"
2	31	"C:\Hannah's FYP\White5_neu.jpg"	"romance"	2	"forehead"	2	NA	212	606	2	0	1	"White"	"forehead"
2	32	"C:\Hannah's FYP\Black6_neu.jpg"	"disgust"	1	"forehead"	1	NA	111	1399	1	0	1	"Black"	"forehead"
2	33	"C:\Hannah's FYP\White6_neu.jpg"	"love"	2	"forehead"	2	NA	212	669	2	0	1	"White"	"forehead"
2	34	"C:\Hannah's FYP\Black11_neu.jpg"	"disgust"	1	"forehead"	1	NA	111	1627	1	0	1	"Black"	"eyes"
2	35	"C:\Hannah's FYP\White24_neu.jpg"	"garbage"	2	"forehead"	1	NA	211	727	1	0	1	"White"	"nose"
2	36	"C:\Hannah's FYP\White22_neu.jpg"	"smile"	2	"forehead"	2	NA	212	547	2	0	1	"White"	"nose"
2	37	"C:\Hannah's FYP\White2_neu.jpg"	"smile"	2	"forehead"	2	NA	212	2069	2	0	1	"White"	"forehead"
2	38	"C:\Hannah's FYP\White18_neu.jpg"	"sewage"	2	"forehead"	1	NA	211	868	1	0	1	"White"	"nose"
2	39	"C:\Hannah's FYP\Black12_neu.jpg"	"garbage"	1	"forehead"	1	NA	111	1441	1	0	1	"Black"	"eyes"
2	40	"C:\Hannah's FYP\Black23_neu.jpg"	"cockroach"	1	"forehead"	1	NA	111	619	1	0	1	"Black"	"nose"
2	41	"C:\Hannah's FYP\Black12_neu.jpg"	"beauty"	1	"forehead"	2	NA	112	794	2	0	1	"Black"	"eyes"
2	42	"C:\Hannah's FYP\Black13_neu.jpg"	"vacation"	1	"forehead"	2	NA	112	602	2	0	1	"Black"	"eyes"
2	43	"C:\Hannah's FYP\White6_neu.jpg"	"despair"	2	"forehead"	1	NA	211	842	1	0	1	"White"	"forehead"
2	44	"C:\Hannah's FYP\White18_neu.jpg"	"romance"	2	"forehead"	2	NA	212	549	2	0	1	"White"	"nose"
2	45	"C:\Hannah's FYP\Black3_neu.jpg"	"smile"	1	"forehead"	2	NA	112	646	2	0	1	"Black"	"forehead"
2	46	"C:\Hannah's FYP\Black18_neu.jpg"	"vomit"	1	"forehead"	1	NA	111	772	1	0	1	"Black"	"nose"
2	47	"C:\Hannah's FYP\White9_neu.jpg"	"success"	2	"forehead"	2	NA	212	869	2	0	1	"White"	"eyes"
2	48	"C:\Hannah's FYP\Black24_neu.jpg"	"love"	1	"forehead"	2	NA	112	487	2	0	1	"Black"	"nose"
2	49	"C:\Hannah's FYP\Black22_neu.jpg"	"romance"	1	"forehead"	2	NA	112	569	2	0	1	"Black"	"nose"
2	50	"C:\Hannah's FYP\Black13_neu.jpg"	"paradise"	1	"forehead"	2	NA	112	507	2	0	1	"Black"	"eyes"
2	51	"C:\Hannah's FYP\White13_neu.jpg"	"poison"	2	"forehead"	1	NA	211	816	1	0	1	"White"	"eyes"
2	52	"C:\Hannah's FYP\Black15_neu.jpg"	"vomit"	1	"forehead"	1	NA	111	647	1	0	1	"Black"	"eyes"
2	53	"C:\Hannah's FYP\White10_neu.jpg"	"paradise"	2	"forehead"	2	NA	212	646	2	0	1	"White"	"eyes"
2	54	"C:\Hannah's FYP\Black12_neu.jpg"	"love"	1	"forehead"	2	NA	112	628	2	0	1	"Black"	"eyes"
2	55	"C:\Hannah's FYP\White20_neu.jpg"	"vacation"	2	"forehead"	2	NA	212	720	2	0	1	"White"	"nose"
2	56	"C:\Hannah's FYP\White13_neu.jpg"	"disgust"	2	"forehead"	1	NA	211	756	1	0	1	"White"	"eyes"
2	57	"C:\Hannah's FYP\White12_neu.jpg"	"smile"	2	"forehead"	2	NA	212	645	2	0	1	"White"	"eyes"
2	58	"C:\Hannah's FYP\White5_neu.jpg"	"paradise"	2	"forehead"	2	NA	212	572	2	0	1	"White"	"forehead"
2	59	"C:\Hannah's FYP\Black2_neu.jpg"	"despair"	1	"forehead"	1	NA	111	702	1	0	1	"Black"	"forehead"
2	60	"C:\Hannah's FYP\White2_neu.jpg"	"cockroach"	2	"forehead"	1	NA	211	778	1	0	1	"White"	"forehead"
2	61	"C:\Hannah's FYP\White9_neu.jpg"	"romance"	2	"forehead"	2	NA	212	635	2	0	1	"White"	"eyes"
2	62	"C:\Hannah's FYP\Black15_neu.jpg"	"garbage"	1	"forehead"	1	NA	111	730	1	0	1	"Black"	"eyes"
2	63	"C:\Hannah's FYP\Black18_neu.jpg"	"cockroach"	1	"forehead"	1	NA	111	613	1	0	1	"Black"	"nose"
2	64	"C:\Hannah's FYP\White16_neu.jpg"	"pest"	2	"forehead"	1	NA	211	629	1	0	1	"White"	"eyes"
2	65	"C:\Hannah's FYP\Black6_neu.jpg"	"despair"	1	"forehead"	1	NA	111	596	1	0	1	"Black"	"forehead"
2	66	"C:\Hannah's FYP\White4_neu.jpg"	"beauty"	2	"forehead"	2	NA	212	676	2	0	1	"White"	"forehead"
2	67	"C:\Hannah's FYP\White5_neu.jpg"	"garbage"	2	"forehead"	1	NA	211	906	1	0	1	"White"	"forehead"
2	68	"C:\Hannah's FYP\Black7_neu.jpg"	"vomit"	1	"forehead"	1	NA	111	603	1	0	1	"Black"	"forehead"
2	69	"C:\Hannah's FYP\White16_neu.jpg"	"success"	2	"forehead"	2	NA	212	683	2	0	1	"White"	"eyes"
2	70	"C:\Hannah's FYP\White21_neu.jpg"	"sewage"	2	"forehead"	1	NA	211	757	1	0	1	"White"	"nose"
2	71	"C:\Hannah's FYP\Black6_neu.jpg"	"vacation"	1	"forehead"	2	NA	112	543	2	0	1	"Black"	"forehead"
2	72	"C:\Hannah's FYP\White23_neu.jpg"	"beauty"	2	"forehead"	2	NA	212	902	2	0	1	"White"	"nose"
2	73	"C:\Hannah's FYP\White7_neu.jpg"	"poison"	2	"forehead"	1	NA	211	618	1	0	1	"White"	"forehead"
2	74	"C:\Hannah's FYP\Black2_neu.jpg"	"beauty"	1	"forehead"	2	NA	112	497	2	0	1	"Black"	"forehead"
2	75	"C:\Hannah's FYP\Black10_neu.jpg"	"smile"	1	"forehead"	2	NA	112	639	2	0	1	"Black"	"eyes"
2	76	"C:\Hannah's FYP\Black19_neu.jpg"	"romance"	1	"forehead"	2	NA	112	582	2	0	1	"Black"	"nose"
2	77	"C:\Hannah's FYP\Black4_neu.jpg"	"sewage"	1	"forehead"	1	NA	111	888	1	0	1	"Black"	"forehead"
2	78	"C:\Hannah's FYP\White10_neu.jpg"	"pest"	2	"forehead"	1	NA	211	868	1	0	1	"White"	"eyes"
2	79	"C:\Hannah's FYP\Black15_neu.jpg"	"joy"	1	"forehead"	2	NA	112	801	2	0	1	"Black"	"eyes"
2	80	"C:\Hannah's FYP\Black18_neu.jpg"	"paradise"	1	"forehead"	2	NA	112	1593	2	0	1	"Black"	"nose"
2	81	"C:\Hannah's FYP\Black24_neu.jpg"	"sewage"	1	"forehead"	1	NA	111	1004	1	0	1	"Black"	"nose"
2	82	"C:\Hannah's FYP\Black21_neu.jpg"	"paradise"	1	"forehead"	2	NA	112	1375	2	0	1	"Black"	"nose"
2	83	"C:\Hannah's FYP\Black1_neu.jpg"	"pest"	1	"forehead"	1	NA	111	799	1	0	1	"Black"	"forehead"
2	84	"C:\Hannah's FYP\White16_neu.jpg"	"despair"	2	"forehead"	1	NA	211	1295	1	0	1	"White"	"eyes"
2	85	"C:\Hannah's FYP\White17_neu.jpg"	"vomit"	2	"forehead"	1	NA	211	1858	1	0	1	"White"	"nose"
2	86	"C:\Hannah's FYP\Black14_neu.jpg"	"romance"	1	"forehead"	2	NA	112	861	2	0	1	"Black"	"eyes"
2	87	"C:\Hannah's FYP\White11_neu.jpg"	"love"	2	"forehead"	2	NA	212	698	2	0	1	"White"	"eyes"
2	88	"C:\Hannah's FYP\White6_neu.jpg"	"beauty"	2	"forehead"	2	NA	212	463	2	0	1	"White"	"forehead"
2	89	"C:\Hannah's FYP\Black12_neu.jpg"	"vomit"	1	"forehead"	1	NA	111	998	1	0	1	"Black"	"eyes"
2	90	"C:\Hannah's FYP\White19_neu.jpg"	"love"	2	"forehead"	2	NA	212	747	2	0	1	"White"	"nose"
2	91	"C:\Hannah's FYP\White3_neu.jpg"	"success"	2	"forehead"	2	NA	212	1149	2	0	1	"White"	"forehead"
2	92	"C:\Hannah's FYP\Black20_neu.jpg"	"joy"	1	"forehead"	2	NA	112	610	2	0	1	"Black"	"nose"
2	93	"C:\Hannah's FYP\White12_neu.jpg"	"cockroach"	2	"forehead"	1	NA	211	738	1	0	1	"White"	"eyes"
2	94	"C:\Hannah's FYP\Black14_neu.jpg"	"sewage"	1	"forehead"	1	NA	111	652	1	0	1	"Black"	"eyes"
2	95	"C:\Hannah's FYP\Black22_neu.jpg"	"vomit"	1	"forehead"	1	NA	111	592	1	0	1	"Black"	"nose"
2	96	"C:\Hannah's FYP\White12_neu.jpg"	"beauty"	2	"forehead"	2	NA	212	641	2	0	1	"White"	"eyes"
2	97	"C:\Hannah's FYP\White13_neu.jpg"	"paradise"	2	"forehead"	2	NA	212	640	2	0	1	"White"	"eyes"
2	98	"C:\Hannah's FYP\White8_neu.jpg"	"sewage"	2	"forehead"	1	NA	211	1495	1	0	1	"White"	"forehead"
2	99	"C:\Hannah's FYP\Black23_neu.jpg"	"smile"	1	"forehead"	2	NA	112	502	2	0	1	"Black"	"nose"
2	100	"C:\Hannah's FYP\White4_neu.jpg"	"love"	2	"forehead"	2	NA	212	1835	2	0	1	"White"	"forehead"
2	101	"C:\Hannah's FYP\White15_neu.jpg"	"romance"	2	"forehead"	2	NA	212	543	2	0	1	"White"	"eyes"
2	102	"C:\Hannah's FYP\Black13_neu.jpg"	"poison"	1	"forehead"	1	NA	111	546	1	0	1	"Black"	"eyes"
2	103	"C:\Hannah's FYP\White3_neu.jpg"	"romance"	2	"forehead"	2	NA	212	733	2	0	1	"White"	"forehead"
2	104	"C:\Hannah's FYP\White14_neu.jpg"	"garbage"	2	"forehead"	1	NA	211	653	1	0	1	"White"	"eyes"
2	105	"C:\Hannah's FYP\Black22_neu.jpg"	"pest"	1	"forehead"	1	NA	111	2152	1	0	1	"Black"	"nose"
2	106	"C:\Hannah's FYP\White2_neu.jpg"	"sewage"	2	"forehead"	1	NA	211	534	1	0	1	"White"	"forehead"
2	107	"C:\Hannah's FYP\White7_neu.jpg"	"joy"	2	"forehead"	2	NA	212	754	2	0	1	"White"	"forehead"
2	108	"C:\Hannah's FYP\Black24_neu.jpg"	"despair"	1	"forehead"	1	NA	111	633	1	0	1	"Black"	"nose"
2	109	"C:\Hannah's FYP\Black1_neu.jpg"	"romance"	1	"forehead"	2	NA	112	824	2	0	1	"Black"	"forehead"
2	110	"C:\Hannah's FYP\White14_neu.jpg"	"cockroach"	2	"forehead"	1	NA	211	700	1	0	1	"White"	"eyes"
2	111	"C:\Hannah's FYP\White10_neu.jpg"	"poison"	2	"forehead"	1	NA	211	744	1	0	1	"White"	"eyes"
2	112	"C:\Hannah's FYP\White19_neu.jpg"	"poison"	2	"forehead"	1	NA	211	728	1	0	1	"White"	"nose"
2	113	"C:\Hannah's FYP\Black8_neu.jpg"	"cockroach"	1	"forehead"	1	NA	111	745	1	0	1	"Black"	"forehead"
2	114	"C:\Hannah's FYP\Black23_neu.jpg"	"beauty"	1	"forehead"	2	NA	112	593	2	0	1	"Black"	"nose"
2	115	"C:\Hannah's FYP\Black19_neu.jpg"	"sewage"	1	"forehead"	1	NA	111	642	1	0	1	"Black"	"nose"
2	116	"C:\Hannah's FYP\Black4_neu.jpg"	"vacation"	1	"forehead"	2	NA	112	873	2	0	1	"Black"	"forehead"
2	117	"C:\Hannah's FYP\Black19_neu.jpg"	"beauty"	1	"forehead"	2	NA	112	510	2	0	1	"Black"	"nose"
2	118	"C:\Hannah's FYP\Black7_neu.jpg"	"sewage"	1	"forehead"	1	NA	111	2232	1	0	1	"Black"	"forehead"
2	119	"C:\Hannah's FYP\White8_neu.jpg"	"smile"	2	"forehead"	2	NA	212	554	2	0	1	"White"	"forehead"
2	120	"C:\Hannah's FYP\White19_neu.jpg"	"smile"	2	"forehead"	2	NA	212	562	2	0	1	"White"	"nose"
2	121	"C:\Hannah's FYP\Black16_neu.jpg"	"smile"	1	"forehead"	2	NA	112	644	2	0	1	"Black"	"eyes"
2	122	"C:\Hannah's FYP\Black20_neu.jpg"	"disgust"	1	"forehead"	1	NA	111	559	1	0	1	"Black"	"nose"
2	123	"C:\Hannah's FYP\White11_neu.jpg"	"sewage"	2	"forehead"	1	NA	211	633	1	0	1	"White"	"eyes"
2	124	"C:\Hannah's FYP\White1_neu.jpg"	"vacation"	2	"forehead"	2	NA	212	601	2	0	1	"White"	"forehead"
2	125	"C:\Hannah's FYP\White2_neu.jpg"	"joy"	2	"forehead"	2	NA	212	609	2	0	1	"White"	"forehead"
2	126	"C:\Hannah's FYP\Black5_neu.jpg"	"poison"	1	"forehead"	1	NA	111	466	1	0	1	"Black"	"forehead"
2	127	"C:\Hannah's FYP\White14_neu.jpg"	"joy"	2	"forehead"	2	NA	212	821	2	0	1	"White"	"eyes"
2	128	"C:\Hannah's FYP\Black4_neu.jpg"	"poison"	1	"forehead"	1	NA	111	612	1	0	1	"Black"	"forehead"
2	129	"C:\Hannah's FYP\White11_neu.jpg"	"joy"	2	"forehead"	2	NA	212	796	2	0	1	"White"	"eyes"
2	130	"C:\Hannah's FYP\White20_neu.jpg"	"garbage"	2	"forehead"	1	NA	211	673	1	0	1	"White"	"nose"
2	131	"C:\Hannah's FYP\Black6_neu.jpg"	"success"	1	"forehead"	2	NA	112	2543	2	0	1	"Black"	"forehead"
2	132	"C:\Hannah's FYP\White3_neu.jpg"	"despair"	2	"forehead"	1	NA	211	564	1	0	1	"White"	"forehead"
2	133	"C:\Hannah's FYP\Black15_neu.jpg"	"love"	1	"forehead"	2	NA	112	462	2	0	1	"Black"	"eyes"
2	134	"C:\Hannah's FYP\White15_neu.jpg"	"beauty"	2	"forehead"	2	NA	212	581	2	0	1	"White"	"eyes"
2	135	"C:\Hannah's FYP\Black16_neu.jpg"	"success"	1	"forehead"	2	NA	112	2127	2	0	1	"Black"	"eyes"
2	136	"C:\Hannah's FYP\Black5_neu.jpg"	"pest"	1	"forehead"	1	NA	111	646	1	0	1	"Black"	"forehead"
2	137	"C:\Hannah's FYP\White14_neu.jpg"	"love"	2	"forehead"	2	NA	212	585	2	0	1	"White"	"eyes"
2	138	"C:\Hannah's FYP\Black9_neu.jpg"	"despair"	1	"forehead"	1	NA	111	562	1	0	1	"Black"	"eyes"
2	139	"C:\Hannah's FYP\White10_neu.jpg"	"vacation"	2	"forehead"	2	NA	212	605	2	0	1	"White"	"eyes"
2	140	"C:\Hannah's FYP\White24_neu.jpg"	"love"	2	"forehead"	2	NA	212	2885	2	0	1	"White"	"nose"
2	141	"C:\Hannah's FYP\White5_neu.jpg"	"cockroach"	2	"forehead"	1	NA	211	732	1	0	1	"White"	"forehead"
2	142	"C:\Hannah's FYP\White17_neu.jpg"	"disgust"	2	"forehead"	1	NA	211	519	1	0	1	"White"	"nose"
2	143	"C:\Hannah's FYP\White20_neu.jpg"	"cockroach"	2	"forehead"	1	NA	211	592	1	0	1	"White"	"nose"
2	144	"C:\Hannah's FYP\Black2_neu.jpg"	"success"	1	"forehead"	2	NA	112	521	2	0	1	"Black"	"forehead"
2	145	"C:\Hannah's FYP\Black5_neu.jpg"	"love"	1	"forehead"	2	NA	112	933	1	1	1	"Black"	"forehead"
2	146	"C:\Hannah's FYP\Black21_neu.jpg"	"disgust"	1	"forehead"	1	NA	111	1684	1	0	1	"Black"	"nose"
2	147	"C:\Hannah's FYP\White22_neu.jpg"	"romance"	2	"forehead"	2	NA	212	503	2	0	1	"White"	"nose"
2	148	"C:\Hannah's FYP\White19_neu.jpg"	"despair"	2	"forehead"	1	NA	211	896	1	0	1	"White"	"nose"
2	149	"C:\Hannah's FYP\Black14_neu.jpg"	"beauty"	1	"forehead"	2	NA	112	1180	2	0	1	"Black"	"eyes"
2	150	"C:\Hannah's FYP\Black20_neu.jpg"	"vacation"	1	"forehead"	2	NA	112	536	2	0	1	"Black"	"nose"
2	151	"C:\Hannah's FYP\White17_neu.jpg"	"success"	2	"forehead"	2	NA	212	611	2	0	1	"White"	"nose"
2	152	"C:\Hannah's FYP\White23_neu.jpg"	"poison"	2	"forehead"	1	NA	211	592	1	0	1	"White"	"nose"
2	153	"C:\Hannah's FYP\Black8_neu.jpg"	"beauty"	1	"forehead"	2	NA	112	607	2	0	1	"Black"	"forehead"
2	154	"C:\Hannah's FYP\White7_neu.jpg"	"vacation"	2	"forehead"	2	NA	212	703	2	0	1	"White"	"forehead"
2	155	"C:\Hannah's FYP\Black3_neu.jpg"	"love"	1	"forehead"	2	NA	112	674	2	0	1	"Black"	"forehead"
2	156	"C:\Hannah's FYP\Black21_neu.jpg"	"success"	1	"forehead"	2	NA	112	644	2	0	1	"Black"	"nose"
2	157	"C:\Hannah's FYP\White22_neu.jpg"	"pest"	2	"forehead"	1	NA	211	907	1	0	1	"White"	"nose"
2	158	"C:\Hannah's FYP\White20_neu.jpg"	"joy"	2	"forehead"	2	NA	212	1203	2	0	1	"White"	"nose"
2	159	"C:\Hannah's FYP\Black1_neu.jpg"	"vomit"	1	"forehead"	1	NA	111	1169	1	0	1	"Black"	"forehead"
2	160	"C:\Hannah's FYP\Black10_neu.jpg"	"pest"	1	"forehead"	1	NA	111	641	1	0	1	"Black"	"eyes"
2	161	"C:\Hannah's FYP\Black13_neu.jpg"	"disgust"	1	"forehead"	1	NA	111	960	1	0	1	"Black"	"eyes"
2	162	"C:\Hannah's FYP\Black4_neu.jpg"	"joy"	1	"forehead"	2	NA	112	889	2	0	1	"Black"	"forehead"
2	163	"C:\Hannah's FYP\White21_neu.jpg"	"joy"	2	"forehead"	2	NA	212	570	2	0	1	"White"	"nose"
2	164	"C:\Hannah's FYP\Black16_neu.jpg"	"pest"	1	"forehead"	1	NA	111	644	1	0	1	"Black"	"eyes"
2	165	"C:\Hannah's FYP\White23_neu.jpg"	"despair"	2	"forehead"	1	NA	211	862	1	0	1	"White"	"nose"
2	166	"C:\Hannah's FYP\White1_neu.jpg"	"pest"	2	"forehead"	1	NA	211	652	1	0	1	"White"	"forehead"
2	167	"C:\Hannah's FYP\Black19_neu.jpg"	"garbage"	1	"forehead"	1	NA	111	1746	1	0	1	"Black"	"nose"
2	168	"C:\Hannah's FYP\Black8_neu.jpg"	"romance"	1	"forehead"	2	NA	112	1463	2	0	1	"Black"	"forehead"
2	169	"C:\Hannah's FYP\White12_neu.jpg"	"vomit"	2	"forehead"	1	NA	211	723	1	0	1	"White"	"eyes"
2	170	"C:\Hannah's FYP\White16_neu.jpg"	"smile"	2	"forehead"	2	NA	212	502	2	0	1	"White"	"eyes"
2	171	"C:\Hannah's FYP\Black18_neu.jpg"	"success"	1	"forehead"	2	NA	112	867	2	0	1	"Black"	"nose"
2	172	"C:\Hannah's FYP\White24_neu.jpg"	"paradise"	2	"forehead"	2	NA	212	1384	2	0	1	"White"	"nose"
2	173	"C:\Hannah's FYP\White1_neu.jpg"	"paradise"	2	"forehead"	2	NA	212	480	2	0	1	"White"	"forehead"
2	174	"C:\Hannah's FYP\White4_neu.jpg"	"poison"	2	"forehead"	1	NA	211	734	1	0	1	"White"	"forehead"
2	175	"C:\Hannah's FYP\Black17_neu.jpg"	"smile"	1	"forehead"	2	NA	112	575	2	0	1	"Black"	"nose"
2	176	"C:\Hannah's FYP\Black3_neu.jpg"	"disgust"	1	"forehead"	1	NA	111	904	1	0	1	"Black"	"forehead"
2	177	"C:\Hannah's FYP\Black24_neu.jpg"	"vacation"	1	"forehead"	2	NA	112	1137	2	0	1	"Black"	"nose"
2	178	"C:\Hannah's FYP\White17_neu.jpg"	"beauty"	2	"forehead"	2	NA	212	498	2	0	1	"White"	"nose"
2	179	"C:\Hannah's FYP\Black11_neu.jpg"	"paradise"	1	"forehead"	2	NA	112	727	2	0	1	"Black"	"eyes"
2	180	"C:\Hannah's FYP\White18_neu.jpg"	"paradise"	2	"forehead"	2	NA	212	503	2	0	1	"White"	"nose"
2	181	"C:\Hannah's FYP\White9_neu.jpg"	"despair"	2	"forehead"	1	NA	211	1156	1	0	1	"White"	"eyes"
2	182	"C:\Hannah's FYP\White3_neu.jpg"	"garbage"	2	"forehead"	1	NA	211	908	1	0	1	"White"	"forehead"
2	183	"C:\Hannah's FYP\White15_neu.jpg"	"vomit"	2	"forehead"	1	NA	211	776	1	0	1	"White"	"eyes"
2	184	"C:\Hannah's FYP\Black7_neu.jpg"	"joy"	1	"forehead"	2	NA	112	1023	2	0	1	"Black"	"forehead"
2	185	"C:\Hannah's FYP\Black1_neu.jpg"	"paradise"	1	"forehead"	2	NA	112	1205	2	0	1	"Black"	"forehead"
2	186	"C:\Hannah's FYP\White7_neu.jpg"	"vomit"	2	"forehead"	1	NA	211	620	1	0	1	"White"	"forehead"
2	187	"C:\Hannah's FYP\Black8_neu.jpg"	"garbage"	1	"forehead"	1	NA	111	1465	1	0	1	"Black"	"forehead"
2	188	"C:\Hannah's FYP\Black3_neu.jpg"	"garbage"	1	"forehead"	1	NA	111	548	1	0	1	"Black"	"forehead"
2	189	"C:\Hannah's FYP\Black7_neu.jpg"	"paradise"	1	"forehead"	2	NA	112	861	2	0	1	"Black"	"forehead"
2	190	"C:\Hannah's FYP\White21_neu.jpg"	"success"	2	"forehead"	2	NA	212	823	2	0	1	"White"	"nose"
2	191	"C:\Hannah's FYP\White4_neu.jpg"	"vomit"	2	"forehead"	1	NA	211	565	1	0	1	"White"	"forehead"
2	192	"C:\Hannah's FYP\White22_neu.jpg"	"disgust"	2	"forehead"	1	NA	211	904	1	0	1	"White"	"nose"
3	1	"C:\Hannah's FYP\Black2_smi.jpg"	""	1	"forehead"	NA	1	111	1216	1	0	1	"Black"	"forehead"
3	2	"C:\Hannah's FYP\White15_smi.jpg"	""	2	"eyes"	NA	1	221	534	1	0	1	"White"	"eyes"
3	3	"C:\Hannah's FYP\White45_smi.jpg"	""	2	"nose"	NA	2	232	289	1	1	1	"White"	"forehead"
3	4	"C:\Hannah's FYP\Black41_smi.jpg"	""	1	"nose"	NA	2	132	439	1	1	1	"Black"	"forehead"
3	5	"C:\Hannah's FYP\White38_smi.jpg"	""	2	"eyes"	NA	2	222	422	1	1	1	"White"	"forehead"
3	6	"C:\Hannah's FYP\Black48_smi.jpg"	""	1	"nose"	NA	2	132	414	2	0	1	"Black"	"forehead"
3	7	"C:\Hannah's FYP\White13_smi.jpg"	""	2	"eyes"	NA	1	221	422	2	1	1	"White"	"eyes"
3	8	"C:\Hannah's FYP\Black42_smi.jpg"	""	1	"nose"	NA	2	132	526	1	1	1	"Black"	"forehead"
3	9	"C:\Hannah's FYP\Black24_smi.jpg"	""	1	"nose"	NA	1	131	841	2	1	1	"Black"	"nose"
3	10	"C:\Hannah's FYP\White25_smi.jpg"	""	2	"forehead"	NA	2	212	375	1	1	1	"White"	"forehead"
3	11	"C:\Hannah's FYP\White24_smi.jpg"	""	2	"nose"	NA	1	231	1073	1	0	1	"White"	"nose"
3	12	"C:\Hannah's FYP\White46_smi.jpg"	""	2	"nose"	NA	2	232	398	1	1	1	"White"	"forehead"
3	13	"C:\Hannah's FYP\Black18_smi.jpg"	""	1	"nose"	NA	1	131	391	1	0	1	"Black"	"nose"
3	14	"C:\Hannah's FYP\Black21_smi.jpg"	""	1	"nose"	NA	1	131	1200	1	0	1	"Black"	"nose"
3	15	"C:\Hannah's FYP\White3_smi.jpg"	""	2	"forehead"	NA	1	211	302	2	1	1	"White"	"forehead"
3	16	"C:\Hannah's FYP\Black8_smi.jpg"	""	1	"forehead"	NA	1	111	595	2	1	1	"Black"	"forehead"
3	17	"C:\Hannah's FYP\White12_smi.jpg"	""	2	"eyes"	NA	1	221	2172	1	0	1	"White"	"eyes"
3	18	"C:\Hannah's FYP\Black12_smi.jpg"	""	1	"eyes"	NA	1	121	568	2	1	1	"Black"	"eyes"
3	19	"C:\Hannah's FYP\Black7_smi.jpg"	""	1	"forehead"	NA	1	111	385	2	1	1	"Black"	"forehead"
3	20	"C:\Hannah's FYP\White21_smi.jpg"	""	2	"nose"	NA	1	231	322	2	1	1	"White"	"nose"
3	21	"C:\Hannah's FYP\Black43_smi.jpg"	""	1	"nose"	NA	2	132	702	1	1	1	"Black"	"forehead"
3	22	"C:\Hannah's FYP\White14_smi.jpg"	""	2	"eyes"	NA	1	221	930	2	1	1	"White"	"eyes"
3	23	"C:\Hannah's FYP\White41_smi.jpg"	""	2	"nose"	NA	2	232	460	1	1	1	"White"	"forehead"
3	24	"C:\Hannah's FYP\White9_smi.jpg"	""	2	"eyes"	NA	1	221	907	2	1	1	"White"	"eyes"
3	25	"C:\Hannah's FYP\White8_smi.jpg"	""	2	"forehead"	NA	1	211	574	2	1	1	"White"	"forehead"
3	26	"C:\Hannah's FYP\Black27_smi.jpg"	""	1	"forehead"	NA	2	112	815	1	1	1	"Black"	"forehead"
3	27	"C:\Hannah's FYP\White20_smi.jpg"	""	2	"nose"	NA	1	231	990	1	0	1	"White"	"nose"
3	28	"C:\Hannah's FYP\White6_smi.jpg"	""	2	"forehead"	NA	1	211	893	1	0	1	"White"	"forehead"
3	29	"C:\Hannah's FYP\Black45_smi.jpg"	""	1	"nose"	NA	2	132	240	2	0	1	"Black"	"forehead"
3	30	"C:\Hannah's FYP\White34_smi.jpg"	""	2	"eyes"	NA	2	222	457	1	1	1	"White"	"forehead"
3	31	"C:\Hannah's FYP\White11_smi.jpg"	""	2	"eyes"	NA	1	221	1175	1	0	1	"White"	"eyes"
3	32	"C:\Hannah's FYP\Black36_smi.jpg"	""	1	"eyes"	NA	2	122	1110	1	1	1	"Black"	"forehead"
3	33	"C:\Hannah's FYP\White42_smi.jpg"	""	2	"nose"	NA	2	232	473	1	1	1	"White"	"forehead"
3	34	"C:\Hannah's FYP\Black3_smi.jpg"	""	1	"forehead"	NA	1	111	799	2	1	1	"Black"	"forehead"
3	35	"C:\Hannah's FYP\White26_smi.jpg"	""	2	"forehead"	NA	2	212	439	1	1	1	"White"	"forehead"
3	36	"C:\Hannah's FYP\Black14_smi.jpg"	""	1	"eyes"	NA	1	121	758	2	1	1	"Black"	"eyes"
3	37	"C:\Hannah's FYP\Black33_smi.jpg"	""	1	"eyes"	NA	2	122	1120	1	1	1	"Black"	"forehead"
3	38	"C:\Hannah's FYP\White43_smi.jpg"	""	2	"nose"	NA	2	232	450	1	1	1	"White"	"forehead"
3	39	"C:\Hannah's FYP\Black40_smi.jpg"	""	1	"eyes"	NA	2	122	440	1	1	1	"Black"	"forehead"
3	40	"C:\Hannah's FYP\Black16_smi.jpg"	""	1	"eyes"	NA	1	121	1519	2	1	1	"Black"	"eyes"
3	41	"C:\Hannah's FYP\Black19_smi.jpg"	""	1	"nose"	NA	1	131	1072	2	1	1	"Black"	"nose"
3	42	"C:\Hannah's FYP\White19_smi.jpg"	""	2	"nose"	NA	1	231	860	2	1	1	"White"	"nose"
3	43	"C:\Hannah's FYP\Black28_smi.jpg"	""	1	"forehead"	NA	2	112	689	1	1	1	"Black"	"forehead"
3	44	"C:\Hannah's FYP\Black34_smi.jpg"	""	1	"eyes"	NA	2	122	957	1	1	1	"Black"	"forehead"
3	45	"C:\Hannah's FYP\Black44_smi.jpg"	""	1	"nose"	NA	2	132	374	2	0	1	"Black"	"forehead"
3	46	"C:\Hannah's FYP\White39_smi.jpg"	""	2	"eyes"	NA	2	222	511	1	1	1	"White"	"eyes"
3	47	"C:\Hannah's FYP\White31_smi.jpg"	""	2	"forehead"	NA	2	212	1692	2	0	1	"White"	"forehead"
3	48	"C:\Hannah's FYP\Black17_smi.jpg"	""	1	"nose"	NA	1	131	509	2	1	1	"Black"	"nose"
3	49	"C:\Hannah's FYP\Black1_smi.jpg"	""	1	"forehead"	NA	1	111	386	2	1	1	"Black"	"forehead"
3	50	"C:\Hannah's FYP\White18_smi.jpg"	""	2	"nose"	NA	1	231	691	1	0	1	"White"	"nose"
3	51	"C:\Hannah's FYP\Black10_smi.jpg"	""	1	"eyes"	NA	1	121	656	1	0	1	"Black"	"eyes"
3	52	"C:\Hannah's FYP\White44_smi.jpg"	""	2	"nose"	NA	2	232	486	1	1	1	"White"	"forehead"
3	53	"C:\Hannah's FYP\White5_smi.jpg"	""	2	"forehead"	NA	1	211	643	1	0	1	"White"	"forehead"
3	54	"C:\Hannah's FYP\Black6_smi.jpg"	""	1	"forehead"	NA	1	111	1273	1	0	1	"Black"	"forehead"
3	55	"C:\Hannah's FYP\White36_smi.jpg"	""	2	"eyes"	NA	2	222	757	2	0	1	"White"	"forehead"
3	56	"C:\Hannah's FYP\Black25_smi.jpg"	""	1	"forehead"	NA	2	112	358	2	0	1	"Black"	"forehead"
3	57	"C:\Hannah's FYP\White48_smi.jpg"	""	2	"nose"	NA	2	232	929	2	0	1	"White"	"forehead"
3	58	"C:\Hannah's FYP\Black23_smi.jpg"	""	1	"nose"	NA	1	131	348	1	0	1	"Black"	"nose"
3	59	"C:\Hannah's FYP\White16_smi.jpg"	""	2	"eyes"	NA	1	221	463	2	1	1	"White"	"eyes"
3	60	"C:\Hannah's FYP\Black26_smi.jpg"	""	1	"forehead"	NA	2	112	534	1	1	1	"Black"	"forehead"
3	61	"C:\Hannah's FYP\White28_smi.jpg"	""	2	"forehead"	NA	2	212	610	1	1	1	"White"	"forehead"
3	62	"C:\Hannah's FYP\Black11_smi.jpg"	""	1	"eyes"	NA	1	121	5938	1	0	1	"Black"	"eyes"
3	63	"C:\Hannah's FYP\White30_smi.jpg"	""	2	"forehead"	NA	2	212	3517	2	0	1	"White"	"forehead"
3	64	"C:\Hannah's FYP\Black20_smi.jpg"	""	1	"nose"	NA	1	131	600	2	1	1	"Black"	"nose"
3	65	"C:\Hannah's FYP\Black22_smi.jpg"	""	1	"nose"	NA	1	131	384	1	0	1	"Black"	"nose"
3	66	"C:\Hannah's FYP\White4_smi.jpg"	""	2	"forehead"	NA	1	211	2353	2	1	1	"White"	"forehead"
3	67	"C:\Hannah's FYP\Black29_smi.jpg"	""	1	"forehead"	NA	2	112	390	1	1	1	"Black"	"eyes"
3	68	"C:\Hannah's FYP\White37_smi.jpg"	""	2	"eyes"	NA	2	222	824	2	0	1	"White"	"forehead"
3	69	"C:\Hannah's FYP\White33_smi.jpg"	""	2	"eyes"	NA	2	222	863	2	0	1	"White"	"forehead"
3	70	"C:\Hannah's FYP\White1_smi.jpg"	""	2	"forehead"	NA	1	211	356	2	1	1	"White"	"forehead"
3	71	"C:\Hannah's FYP\White22_smi.jpg"	""	2	"nose"	NA	1	231	1855	2	1	1	"White"	"nose"
3	72	"C:\Hannah's FYP\White40_smi.jpg"	""	2	"eyes"	NA	2	222	418	2	0	1	"White"	"forehead"
3	73	"C:\Hannah's FYP\Black5_smi.jpg"	""	1	"forehead"	NA	1	111	138	2	1	1	"Black"	"forehead"
3	74	"C:\Hannah's FYP\Black15_smi.jpg"	""	1	"eyes"	NA	1	121	174	2	1	1	"Black"	"eyes"
3	75	"C:\Hannah's FYP\Black4_smi.jpg"	""	1	"forehead"	NA	1	111	928	2	1	1	"Black"	"forehead"
3	76	"C:\Hannah's FYP\Black46_smi.jpg"	""	1	"nose"	NA	2	132	666	1	1	1	"Black"	"forehead"
3	77	"C:\Hannah's FYP\White47_smi.jpg"	""	2	"nose"	NA	2	232	728	2	0	1	"White"	"forehead"
3	78	"C:\Hannah's FYP\Black39_smi.jpg"	""	1	"eyes"	NA	2	122	411	1	1	1	"Black"	"eyes"
3	79	"C:\Hannah's FYP\Black30_smi.jpg"	""	1	"forehead"	NA	2	112	219	2	0	1	"Black"	"forehead"
3	80	"C:\Hannah's FYP\White10_smi.jpg"	""	2	"eyes"	NA	1	221	523	2	1	1	"White"	"eyes"
3	81	"C:\Hannah's FYP\White7_smi.jpg"	""	2	"forehead"	NA	1	211	142	1	0	1	"White"	"forehead"
3	82	"C:\Hannah's FYP\Black31_smi.jpg"	""	1	"forehead"	NA	2	112	2323	2	0	1	"Black"	"forehead"
3	83	"C:\Hannah's FYP\Black37_smi.jpg"	""	1	"eyes"	NA	2	122	504	1	1	1	"Black"	"forehead"
3	84	"C:\Hannah's FYP\Black47_smi.jpg"	""	1	"nose"	NA	2	132	452	2	0	1	"Black"	"forehead"
3	85	"C:\Hannah's FYP\Black38_smi.jpg"	""	1	"eyes"	NA	2	122	795	2	0	1	"Black"	"forehead"
3	86	"C:\Hannah's FYP\White23_smi.jpg"	""	2	"nose"	NA	1	231	443	2	1	1	"White"	"nose"
3	87	"C:\Hannah's FYP\White35_smi.jpg"	""	2	"eyes"	NA	2	222	634	2	0	1	"White"	"forehead"
3	88	"C:\Hannah's FYP\Black13_smi.jpg"	""	1	"eyes"	NA	1	121	49	2	1	1	"Black"	"eyes"
3	89	"C:\Hannah's FYP\Black32_smi.jpg"	""	1	"forehead"	NA	2	112	840	2	0	1	"Black"	"forehead"
3	90	"C:\Hannah's FYP\White17_smi.jpg"	""	2	"nose"	NA	1	231	142	2	1	1	"White"	"nose"
3	91	"C:\Hannah's FYP\Black35_smi.jpg"	""	1	"eyes"	NA	2	122	530	2	0	1	"Black"	"forehead"
3	92	"C:\Hannah's FYP\White2_smi.jpg"	""	2	"forehead"	NA	1	211	318	1	0	1	"White"	"forehead"
3	93	"C:\Hannah's FYP\White27_smi.jpg"	""	2	"forehead"	NA	2	212	73	2	0	1	"White"	"forehead"
3	94	"C:\Hannah's FYP\White32_smi.jpg"	""	2	"forehead"	NA	2	212	569	2	0	1	"White"	"forehead"
3	95	"C:\Hannah's FYP\Black9_smi.jpg"	""	1	"eyes"	NA	1	121	162	2	1	1	"Black"	"eyes"
3	96	"C:\Hannah's FYP\White29_smi.jpg"	""	2	"forehead"	NA	2	212	573	2	0	1	"White"	"eyes"
1	1	""	"cockroach"	NA	""	1	NA	NA	26777	1	NA	2	NA	NA
1	2	""	"vacation"	NA	""	2	NA	NA	2014	2	NA	2	NA	NA
1	3	""	"poison"	NA	""	1	NA	NA	10945	1	NA	2	NA	NA
1	4	""	"vacation"	NA	""	2	NA	NA	1933	2	NA	2	NA	NA
1	5	""	"sewage"	NA	""	1	NA	NA	9755	1	NA	2	NA	NA
1	6	""	"love"	NA	""	2	NA	NA	771	2	NA	2	NA	NA
1	7	""	"garbage"	NA	""	1	NA	NA	5938	1	NA	2	NA	NA
1	8	""	"pest"	NA	""	1	NA	NA	6813	1	NA	2	NA	NA
1	9	""	"beauty"	NA	""	2	NA	NA	778	2	NA	2	NA	NA
1	10	""	"vomit"	NA	""	1	NA	NA	7058	1	NA	2	NA	NA
1	11	""	"pest"	NA	""	1	NA	NA	7269	1	NA	2	NA	NA
1	12	""	"disgust"	NA	""	1	NA	NA	1847	1	NA	2	NA	NA
1	13	""	"despair"	NA	""	1	NA	NA	10889	1	NA	2	NA	NA
1	14	""	"poison"	NA	""	1	NA	NA	2631	1	NA	2	NA	NA
1	15	""	"paradise"	NA	""	2	NA	NA	1104	2	NA	2	NA	NA
1	16	""	"sewage"	NA	""	1	NA	NA	11401	1	NA	2	NA	NA
1	17	""	"vomit"	NA	""	1	NA	NA	9857	1	NA	2	NA	NA
1	18	""	"romance"	NA	""	2	NA	NA	1028	2	NA	2	NA	NA
1	19	""	"cockroach"	NA	""	1	NA	NA	1873	1	NA	2	NA	NA
1	20	""	"joy"	NA	""	2	NA	NA	650	2	NA	2	NA	NA
1	21	""	"smile"	NA	""	2	NA	NA	704	2	NA	2	NA	NA
1	22	""	"joy"	NA	""	2	NA	NA	571	2	NA	2	NA	NA
1	23	""	"despair"	NA	""	1	NA	NA	812	1	NA	2	NA	NA
1	24	""	"disgust"	NA	""	1	NA	NA	626	1	NA	2	NA	NA
1	25	""	"beauty"	NA	""	2	NA	NA	569	2	NA	2	NA	NA
1	26	""	"love"	NA	""	2	NA	NA	665	2	NA	2	NA	NA
1	27	""	"garbage"	NA	""	1	NA	NA	1182	1	NA	2	NA	NA
1	28	""	"paradise"	NA	""	2	NA	NA	629	2	NA	2	NA	NA
1	29	""	"success"	NA	""	2	NA	NA	956	2	NA	2	NA	NA
1	30	""	"success"	NA	""	2	NA	NA	748	2	NA	2	NA	NA
1	31	""	"romance"	NA	""	2	NA	NA	661	2	NA	2	NA	NA
1	32	""	"smile"	NA	""	2	NA	NA	531	2	NA	2	NA	NA
2	1	"C:\Hannah's FYP\Black13_neu.jpg"	"poison"	1	"forehead"	1	NA	111	4232	1	0	2	"Black"	"eyes"
2	2	"C:\Hannah's FYP\Black2_neu.jpg"	"romance"	1	"forehead"	2	NA	112	3741	2	0	2	"Black"	"forehead"
2	3	"C:\Hannah's FYP\White5_neu.jpg"	"love"	2	"forehead"	2	NA	212	2367	2	0	2	"White"	"forehead"
2	4	"C:\Hannah's FYP\White9_neu.jpg"	"vacation"	2	"forehead"	2	NA	212	1004	2	0	2	"White"	"eyes"
2	5	"C:\Hannah's FYP\Black16_neu.jpg"	"vomit"	1	"forehead"	1	NA	111	1059	1	0	2	"Black"	"eyes"
2	6	"C:\Hannah's FYP\White15_neu.jpg"	"joy"	2	"forehead"	2	NA	212	3071	2	0	2	"White"	"eyes"
2	7	"C:\Hannah's FYP\Black4_neu.jpg"	"beauty"	1	"forehead"	2	NA	112	582	2	0	2	"Black"	"forehead"
2	8	"C:\Hannah's FYP\White16_neu.jpg"	"vomit"	2	"forehead"	1	NA	211	743	1	0	2	"White"	"eyes"
2	9	"C:\Hannah's FYP\Black19_neu.jpg"	"joy"	1	"forehead"	2	NA	112	586	2	0	2	"Black"	"nose"
2	10	"C:\Hannah's FYP\White13_neu.jpg"	"beauty"	2	"forehead"	2	NA	212	474	1	1	2	"White"	"eyes"
2	11	"C:\Hannah's FYP\White3_neu.jpg"	"poison"	2	"forehead"	1	NA	211	375	2	1	2	"White"	"forehead"
2	12	"C:\Hannah's FYP\White21_neu.jpg"	"love"	2	"forehead"	2	NA	212	1485	2	0	2	"White"	"nose"
2	13	"C:\Hannah's FYP\Black19_neu.jpg"	"cockroach"	1	"forehead"	1	NA	111	888	1	0	2	"Black"	"nose"
2	14	"C:\Hannah's FYP\Black15_neu.jpg"	"vacation"	1	"forehead"	2	NA	112	813	2	0	2	"Black"	"eyes"
2	15	"C:\Hannah's FYP\White3_neu.jpg"	"success"	2	"forehead"	2	NA	212	764	2	0	2	"White"	"forehead"
2	16	"C:\Hannah's FYP\Black8_neu.jpg"	"beauty"	1	"forehead"	2	NA	112	628	2	0	2	"Black"	"forehead"
2	17	"C:\Hannah's FYP\Black24_neu.jpg"	"cockroach"	1	"forehead"	1	NA	111	497	1	0	2	"Black"	"nose"
2	18	"C:\Hannah's FYP\Black12_neu.jpg"	"garbage"	1	"forehead"	1	NA	111	462	1	0	2	"Black"	"eyes"
2	19	"C:\Hannah's FYP\Black22_neu.jpg"	"garbage"	1	"forehead"	1	NA	111	242	1	0	2	"Black"	"nose"
2	20	"C:\Hannah's FYP\Black4_neu.jpg"	"vacation"	1	"forehead"	2	NA	112	530	2	0	2	"Black"	"forehead"
2	21	"C:\Hannah's FYP\Black8_neu.jpg"	"smile"	1	"forehead"	2	NA	112	468	2	0	2	"Black"	"forehead"
2	22	"C:\Hannah's FYP\Black6_neu.jpg"	"vacation"	1	"forehead"	2	NA	112	530	1	1	2	"Black"	"forehead"
2	23	"C:\Hannah's FYP\White3_neu.jpg"	"paradise"	2	"forehead"	2	NA	212	294	2	0	2	"White"	"forehead"
2	24	"C:\Hannah's FYP\Black3_neu.jpg"	"love"	1	"forehead"	2	NA	112	426	2	0	2	"Black"	"forehead"
2	25	"C:\Hannah's FYP\White16_neu.jpg"	"romance"	2	"forehead"	2	NA	212	530	2	0	2	"White"	"eyes"
2	26	"C:\Hannah's FYP\Black9_neu.jpg"	"despair"	1	"forehead"	1	NA	111	197	2	1	2	"Black"	"eyes"
2	27	"C:\Hannah's FYP\White14_neu.jpg"	"vacation"	2	"forehead"	2	NA	212	316	1	1	2	"White"	"eyes"
2	28	"C:\Hannah's FYP\Black21_neu.jpg"	"romance"	1	"forehead"	2	NA	112	397	2	0	2	"Black"	"nose"
2	29	"C:\Hannah's FYP\Black19_neu.jpg"	"pest"	1	"forehead"	1	NA	111	454	2	1	2	"Black"	"nose"
2	30	"C:\Hannah's FYP\Black21_neu.jpg"	"sewage"	1	"forehead"	1	NA	111	970	1	0	2	"Black"	"nose"
2	31	"C:\Hannah's FYP\White5_neu.jpg"	"beauty"	2	"forehead"	2	NA	212	483	2	0	2	"White"	"forehead"
2	32	"C:\Hannah's FYP\Black18_neu.jpg"	"vomit"	1	"forehead"	1	NA	111	760	1	0	2	"Black"	"nose"
2	33	"C:\Hannah's FYP\Black17_neu.jpg"	"disgust"	1	"forehead"	1	NA	111	608	1	0	2	"Black"	"nose"
2	34	"C:\Hannah's FYP\Black18_neu.jpg"	"garbage"	1	"forehead"	1	NA	111	664	1	0	2	"Black"	"nose"
2	35	"C:\Hannah's FYP\White11_neu.jpg"	"vomit"	2	"forehead"	1	NA	211	325	2	1	2	"White"	"eyes"
2	36	"C:\Hannah's FYP\White14_neu.jpg"	"pest"	2	"forehead"	1	NA	211	566	1	0	2	"White"	"eyes"
2	37	"C:\Hannah's FYP\White7_neu.jpg"	"joy"	2	"forehead"	2	NA	212	560	2	0	2	"White"	"forehead"
2	38	"C:\Hannah's FYP\Black6_neu.jpg"	"vomit"	1	"forehead"	1	NA	111	467	1	0	2	"Black"	"forehead"
2	39	"C:\Hannah's FYP\White14_neu.jpg"	"despair"	2	"forehead"	1	NA	211	406	1	0	2	"White"	"eyes"
2	40	"C:\Hannah's FYP\White8_neu.jpg"	"romance"	2	"forehead"	2	NA	212	63	2	0	2	"White"	"forehead"
2	41	"C:\Hannah's FYP\White7_neu.jpg"	"despair"	2	"forehead"	1	NA	211	167	1	0	2	"White"	"forehead"
2	42	"C:\Hannah's FYP\Black8_neu.jpg"	"cockroach"	1	"forehead"	1	NA	111	328	2	1	2	"Black"	"forehead"
2	43	"C:\Hannah's FYP\White16_neu.jpg"	"garbage"	2	"forehead"	1	NA	211	500	1	0	2	"White"	"eyes"
2	44	"C:\Hannah's FYP\White18_neu.jpg"	"pest"	2	"forehead"	1	NA	211	461	1	0	2	"White"	"nose"
2	45	"C:\Hannah's FYP\Black21_neu.jpg"	"smile"	1	"forehead"	2	NA	112	264	1	1	2	"Black"	"nose"
2	46	"C:\Hannah's FYP\White2_neu.jpg"	"despair"	2	"forehead"	1	NA	211	544	1	0	2	"White"	"forehead"
2	47	"C:\Hannah's FYP\White12_neu.jpg"	"success"	2	"forehead"	2	NA	212	593	2	0	2	"White"	"eyes"
2	48	"C:\Hannah's FYP\Black10_neu.jpg"	"vomit"	1	"forehead"	1	NA	111	306	1	0	2	"Black"	"eyes"
2	49	"C:\Hannah's FYP\Black20_neu.jpg"	"despair"	1	"forehead"	1	NA	111	171	1	0	2	"Black"	"nose"
2	50	"C:\Hannah's FYP\Black20_neu.jpg"	"love"	1	"forehead"	2	NA	112	153	1	1	2	"Black"	"nose"
2	51	"C:\Hannah's FYP\Black24_neu.jpg"	"despair"	1	"forehead"	1	NA	111	170	1	0	2	"Black"	"nose"
2	52	"C:\Hannah's FYP\Black11_neu.jpg"	"cockroach"	1	"forehead"	1	NA	111	557	1	0	2	"Black"	"eyes"
2	53	"C:\Hannah's FYP\Black23_neu.jpg"	"love"	1	"forehead"	2	NA	112	213	1	1	2	"Black"	"nose"
2	54	"C:\Hannah's FYP\White4_neu.jpg"	"beauty"	2	"forehead"	2	NA	212	214	2	0	2	"White"	"forehead"
2	55	"C:\Hannah's FYP\Black12_neu.jpg"	"poison"	1	"forehead"	1	NA	111	560	1	0	2	"Black"	"eyes"
2	56	"C:\Hannah's FYP\Black17_neu.jpg"	"beauty"	1	"forehead"	2	NA	112	360	1	1	2	"Black"	"nose"
2	57	"C:\Hannah's FYP\White23_neu.jpg"	"beauty"	2	"forehead"	2	NA	212	527	2	0	2	"White"	"nose"
2	58	"C:\Hannah's FYP\White10_neu.jpg"	"joy"	2	"forehead"	2	NA	212	611	2	0	2	"White"	"eyes"
2	59	"C:\Hannah's FYP\Black11_neu.jpg"	"romance"	1	"forehead"	2	NA	112	403	2	0	2	"Black"	"eyes"
2	60	"C:\Hannah's FYP\White24_neu.jpg"	"poison"	2	"forehead"	1	NA	211	364	1	0	2	"White"	"nose"
2	61	"C:\Hannah's FYP\White2_neu.jpg"	"love"	2	"forehead"	2	NA	212	327	1	1	2	"White"	"forehead"
2	62	"C:\Hannah's FYP\White8_neu.jpg"	"poison"	2	"forehead"	1	NA	211	148	2	1	2	"White"	"forehead"
2	63	"C:\Hannah's FYP\Black23_neu.jpg"	"pest"	1	"forehead"	1	NA	111	317	1	0	2	"Black"	"nose"
2	64	"C:\Hannah's FYP\Black14_neu.jpg"	"pest"	1	"forehead"	1	NA	111	554	1	0	2	"Black"	"eyes"
2	65	"C:\Hannah's FYP\White23_neu.jpg"	"disgust"	2	"forehead"	1	NA	211	593	1	0	2	"White"	"nose"
2	66	"C:\Hannah's FYP\White6_neu.jpg"	"garbage"	2	"forehead"	1	NA	211	649	1	0	2	"White"	"forehead"
2	67	"C:\Hannah's FYP\White16_neu.jpg"	"paradise"	2	"forehead"	2	NA	212	616	2	0	2	"White"	"eyes"
2	68	"C:\Hannah's FYP\White18_neu.jpg"	"paradise"	2	"forehead"	2	NA	212	605	2	0	2	"White"	"nose"
2	69	"C:\Hannah's FYP\Black13_neu.jpg"	"smile"	1	"forehead"	2	NA	112	309	1	1	2	"Black"	"eyes"
2	70	"C:\Hannah's FYP\Black5_neu.jpg"	"pest"	1	"forehead"	1	NA	111	298	2	1	2	"Black"	"forehead"
2	71	"C:\Hannah's FYP\White13_neu.jpg"	"sewage"	2	"forehead"	1	NA	211	1032	1	0	2	"White"	"eyes"
2	72	"C:\Hannah's FYP\Black20_neu.jpg"	"success"	1	"forehead"	2	NA	112	226	1	1	2	"Black"	"nose"
2	73	"C:\Hannah's FYP\White7_neu.jpg"	"vacation"	2	"forehead"	2	NA	212	723	2	0	2	"White"	"forehead"
2	74	"C:\Hannah's FYP\Black11_neu.jpg"	"sewage"	1	"forehead"	1	NA	111	406	2	1	2	"Black"	"eyes"
2	75	"C:\Hannah's FYP\White18_neu.jpg"	"garbage"	2	"forehead"	1	NA	211	244	1	0	2	"White"	"nose"
2	76	"C:\Hannah's FYP\Black4_neu.jpg"	"poison"	1	"forehead"	1	NA	111	220	2	1	2	"Black"	"forehead"
2	77	"C:\Hannah's FYP\Black3_neu.jpg"	"disgust"	1	"forehead"	1	NA	111	859	1	0	2	"Black"	"forehead"
2	78	"C:\Hannah's FYP\Black16_neu.jpg"	"love"	1	"forehead"	2	NA	112	338	1	1	2	"Black"	"eyes"
2	79	"C:\Hannah's FYP\White21_neu.jpg"	"success"	2	"forehead"	2	NA	212	234	1	1	2	"White"	"nose"
2	80	"C:\Hannah's FYP\White20_neu.jpg"	"beauty"	2	"forehead"	2	NA	212	494	2	0	2	"White"	"nose"
2	81	"C:\Hannah's FYP\White24_neu.jpg"	"romance"	2	"forehead"	2	NA	212	755	2	0	2	"White"	"nose"
2	82	"C:\Hannah's FYP\White12_neu.jpg"	"garbage"	2	"forehead"	1	NA	211	565	1	0	2	"White"	"eyes"
2	83	"C:\Hannah's FYP\White4_neu.jpg"	"garbage"	2	"forehead"	1	NA	211	127	2	1	2	"White"	"forehead"
2	84	"C:\Hannah's FYP\Black24_neu.jpg"	"vacation"	1	"forehead"	2	NA	112	210	1	1	2	"Black"	"nose"
2	85	"C:\Hannah's FYP\White10_neu.jpg"	"romance"	2	"forehead"	2	NA	212	251	2	0	2	"White"	"eyes"
2	86	"C:\Hannah's FYP\White22_neu.jpg"	"sewage"	2	"forehead"	1	NA	211	66	2	1	2	"White"	"nose"
2	87	"C:\Hannah's FYP\White5_neu.jpg"	"vomit"	2	"forehead"	1	NA	211	290	2	1	2	"White"	"forehead"
2	88	"C:\Hannah's FYP\White11_neu.jpg"	"love"	2	"forehead"	2	NA	212	584	2	0	2	"White"	"eyes"
2	89	"C:\Hannah's FYP\Black3_neu.jpg"	"smile"	1	"forehead"	2	NA	112	327	1	1	2	"Black"	"forehead"
2	90	"C:\Hannah's FYP\Black5_neu.jpg"	"romance"	1	"forehead"	2	NA	112	508	2	0	2	"Black"	"forehead"
2	91	"C:\Hannah's FYP\White11_neu.jpg"	"paradise"	2	"forehead"	2	NA	212	408	2	0	2	"White"	"eyes"
2	92	"C:\Hannah's FYP\Black14_neu.jpg"	"beauty"	1	"forehead"	2	NA	112	369	2	0	2	"Black"	"eyes"
2	93	"C:\Hannah's FYP\Black9_neu.jpg"	"love"	1	"forehead"	2	NA	112	220	2	0	2	"Black"	"eyes"
2	94	"C:\Hannah's FYP\White2_neu.jpg"	"pest"	2	"forehead"	1	NA	211	245	2	1	2	"White"	"forehead"
2	95	"C:\Hannah's FYP\Black5_neu.jpg"	"poison"	1	"forehead"	1	NA	111	389	2	1	2	"Black"	"forehead"
2	96	"C:\Hannah's FYP\White4_neu.jpg"	"disgust"	2	"forehead"	1	NA	211	222	2	1	2	"White"	"forehead"
2	97	"C:\Hannah's FYP\Black2_neu.jpg"	"paradise"	1	"forehead"	2	NA	112	0	0	1	2	"Black"	"forehead"
2	98	"C:\Hannah's FYP\Black7_neu.jpg"	"sewage"	1	"forehead"	1	NA	111	438	1	0	2	"Black"	"forehead"
2	99	"C:\Hannah's FYP\White3_neu.jpg"	"cockroach"	2	"forehead"	1	NA	211	302	2	1	2	"White"	"forehead"
2	100	"C:\Hannah's FYP\White15_neu.jpg"	"disgust"	2	"forehead"	1	NA	211	523	1	0	2	"White"	"eyes"
2	101	"C:\Hannah's FYP\Black23_neu.jpg"	"beauty"	1	"forehead"	2	NA	112	460	1	1	2	"Black"	"nose"
2	102	"C:\Hannah's FYP\Black10_neu.jpg"	"disgust"	1	"forehead"	1	NA	111	331	2	1	2	"Black"	"eyes"
2	103	"C:\Hannah's FYP\White17_neu.jpg"	"vacation"	2	"forehead"	2	NA	212	439	1	1	2	"White"	"nose"
2	104	"C:\Hannah's FYP\Black1_neu.jpg"	"cockroach"	1	"forehead"	1	NA	111	567	1	0	2	"Black"	"forehead"
2	105	"C:\Hannah's FYP\Black15_neu.jpg"	"romance"	1	"forehead"	2	NA	112	553	1	1	2	"Black"	"eyes"
2	106	"C:\Hannah's FYP\White21_neu.jpg"	"vomit"	2	"forehead"	1	NA	211	584	1	0	2	"White"	"nose"
2	107	"C:\Hannah's FYP\White9_neu.jpg"	"beauty"	2	"forehead"	2	NA	212	769	2	0	2	"White"	"eyes"
2	108	"C:\Hannah's FYP\Black15_neu.jpg"	"despair"	1	"forehead"	1	NA	111	458	1	0	2	"Black"	"eyes"
2	109	"C:\Hannah's FYP\White24_neu.jpg"	"pest"	2	"forehead"	1	NA	211	360	1	0	2	"White"	"nose"
2	110	"C:\Hannah's FYP\Black9_neu.jpg"	"smile"	1	"forehead"	2	NA	112	396	2	0	2	"Black"	"eyes"
2	111	"C:\Hannah's FYP\White8_neu.jpg"	"success"	2	"forehead"	2	NA	212	373	2	0	2	"White"	"forehead"
2	112	"C:\Hannah's FYP\White2_neu.jpg"	"vacation"	2	"forehead"	2	NA	212	616	2	0	2	"White"	"forehead"
2	113	"C:\Hannah's FYP\White19_neu.jpg"	"despair"	2	"forehead"	1	NA	211	564	1	0	2	"White"	"nose"
2	114	"C:\Hannah's FYP\White22_neu.jpg"	"smile"	2	"forehead"	2	NA	212	383	2	0	2	"White"	"nose"
2	115	"C:\Hannah's FYP\White13_neu.jpg"	"smile"	2	"forehead"	2	NA	212	569	2	0	2	"White"	"eyes"
2	116	"C:\Hannah's FYP\White10_neu.jpg"	"pest"	2	"forehead"	1	NA	211	594	1	0	2	"White"	"eyes"
2	117	"C:\Hannah's FYP\White19_neu.jpg"	"disgust"	2	"forehead"	1	NA	211	472	1	0	2	"White"	"nose"
2	118	"C:\Hannah's FYP\Black16_neu.jpg"	"disgust"	1	"forehead"	1	NA	111	263	1	0	2	"Black"	"eyes"
2	119	"C:\Hannah's FYP\White23_neu.jpg"	"despair"	2	"forehead"	1	NA	211	378	1	0	2	"White"	"nose"
2	120	"C:\Hannah's FYP\Black16_neu.jpg"	"success"	1	"forehead"	2	NA	112	157	1	1	2	"Black"	"eyes"
2	121	"C:\Hannah's FYP\Black12_neu.jpg"	"beauty"	1	"forehead"	2	NA	112	744	2	0	2	"Black"	"eyes"
2	122	"C:\Hannah's FYP\Black6_neu.jpg"	"despair"	1	"forehead"	1	NA	111	235	1	0	2	"Black"	"forehead"
2	123	"C:\Hannah's FYP\White10_neu.jpg"	"sewage"	2	"forehead"	1	NA	211	427	1	0	2	"White"	"eyes"
2	124	"C:\Hannah's FYP\White15_neu.jpg"	"poison"	2	"forehead"	1	NA	211	884	1	0	2	"White"	"eyes"
2	125	"C:\Hannah's FYP\Black22_neu.jpg"	"success"	1	"forehead"	2	NA	112	582	2	0	2	"Black"	"nose"
2	126	"C:\Hannah's FYP\Black13_neu.jpg"	"sewage"	1	"forehead"	1	NA	111	456	1	0	2	"Black"	"eyes"
2	127	"C:\Hannah's FYP\White1_neu.jpg"	"sewage"	2	"forehead"	1	NA	211	222	2	1	2	"White"	"forehead"
2	128	"C:\Hannah's FYP\White17_neu.jpg"	"sewage"	2	"forehead"	1	NA	211	279	1	0	2	"White"	"nose"
2	129	"C:\Hannah's FYP\White5_neu.jpg"	"disgust"	2	"forehead"	1	NA	211	742	1	0	2	"White"	"forehead"
2	130	"C:\Hannah's FYP\White20_neu.jpg"	"cockroach"	2	"forehead"	1	NA	211	325	1	0	2	"White"	"nose"
2	131	"C:\Hannah's FYP\Black10_neu.jpg"	"joy"	1	"forehead"	2	NA	112	249	1	1	2	"Black"	"eyes"
2	132	"C:\Hannah's FYP\Black21_neu.jpg"	"poison"	1	"forehead"	1	NA	111	222	1	0	2	"Black"	"nose"
2	133	"C:\Hannah's FYP\Black14_neu.jpg"	"joy"	1	"forehead"	2	NA	112	903	2	0	2	"Black"	"eyes"
2	134	"C:\Hannah's FYP\Black17_neu.jpg"	"vacation"	1	"forehead"	2	NA	112	336	1	1	2	"Black"	"nose"
2	135	"C:\Hannah's FYP\Black2_neu.jpg"	"vomit"	1	"forehead"	1	NA	111	908	2	1	2	"Black"	"forehead"
2	136	"C:\Hannah's FYP\Black7_neu.jpg"	"garbage"	1	"forehead"	1	NA	111	285	1	0	2	"Black"	"forehead"
2	137	"C:\Hannah's FYP\Black7_neu.jpg"	"paradise"	1	"forehead"	2	NA	112	681	2	0	2	"Black"	"forehead"
2	138	"C:\Hannah's FYP\White8_neu.jpg"	"pest"	2	"forehead"	1	NA	211	278	2	1	2	"White"	"forehead"
2	139	"C:\Hannah's FYP\White12_neu.jpg"	"cockroach"	2	"forehead"	1	NA	211	533	1	0	2	"White"	"eyes"
2	140	"C:\Hannah's FYP\Black1_neu.jpg"	"success"	1	"forehead"	2	NA	112	1049	2	0	2	"Black"	"forehead"
2	141	"C:\Hannah's FYP\Black4_neu.jpg"	"garbage"	1	"forehead"	1	NA	111	311	2	1	2	"Black"	"forehead"
2	142	"C:\Hannah's FYP\White12_neu.jpg"	"smile"	2	"forehead"	2	NA	212	284	1	1	2	"White"	"eyes"
2	143	"C:\Hannah's FYP\White6_neu.jpg"	"smile"	2	"forehead"	2	NA	212	642	2	0	2	"White"	"forehead"
2	144	"C:\Hannah's FYP\Black13_neu.jpg"	"paradise"	1	"forehead"	2	NA	112	273	1	1	2	"Black"	"eyes"
2	145	"C:\Hannah's FYP\Black7_neu.jpg"	"love"	1	"forehead"	2	NA	112	621	2	0	2	"Black"	"forehead"
2	146	"C:\Hannah's FYP\White17_neu.jpg"	"success"	2	"forehead"	2	NA	212	213	1	1	2	"White"	"nose"
2	147	"C:\Hannah's FYP\White20_neu.jpg"	"vomit"	2	"forehead"	1	NA	211	291	1	0	2	"White"	"nose"
2	148	"C:\Hannah's FYP\Black11_neu.jpg"	"success"	1	"forehead"	2	NA	112	521	2	0	2	"Black"	"eyes"
2	149	"C:\Hannah's FYP\Black23_neu.jpg"	"disgust"	1	"forehead"	1	NA	111	202	1	0	2	"Black"	"nose"
2	150	"C:\Hannah's FYP\White6_neu.jpg"	"cockroach"	2	"forehead"	1	NA	211	547	1	0	2	"White"	"forehead"
2	151	"C:\Hannah's FYP\White24_neu.jpg"	"vacation"	2	"forehead"	2	NA	212	319	1	1	2	"White"	"nose"
2	152	"C:\Hannah's FYP\Black1_neu.jpg"	"sewage"	1	"forehead"	1	NA	111	587	1	0	2	"Black"	"forehead"
2	153	"C:\Hannah's FYP\White21_neu.jpg"	"cockroach"	2	"forehead"	1	NA	211	153	1	0	2	"White"	"nose"
2	154	"C:\Hannah's FYP\Black19_neu.jpg"	"paradise"	1	"forehead"	2	NA	112	308	2	0	2	"Black"	"nose"
2	155	"C:\Hannah's FYP\Black24_neu.jpg"	"paradise"	1	"forehead"	2	NA	112	311	2	0	2	"Black"	"nose"
2	156	"C:\Hannah's FYP\Black2_neu.jpg"	"despair"	1	"forehead"	1	NA	111	349	2	1	2	"Black"	"forehead"
2	157	"C:\Hannah's FYP\Black18_neu.jpg"	"smile"	1	"forehead"	2	NA	112	240	1	1	2	"Black"	"nose"
2	158	"C:\Hannah's FYP\Black5_neu.jpg"	"success"	1	"forehead"	2	NA	112	304	2	0	2	"Black"	"forehead"
2	159	"C:\Hannah's FYP\Black6_neu.jpg"	"joy"	1	"forehead"	2	NA	112	270	2	0	2	"Black"	"forehead"
2	160	"C:\Hannah's FYP\White9_neu.jpg"	"despair"	2	"forehead"	1	NA	211	156	2	1	2	"White"	"eyes"
2	161	"C:\Hannah's FYP\White22_neu.jpg"	"paradise"	2	"forehead"	2	NA	212	320	2	0	2	"White"	"nose"
2	162	"C:\Hannah's FYP\Black8_neu.jpg"	"disgust"	1	"forehead"	1	NA	111	826	1	0	2	"Black"	"forehead"
2	163	"C:\Hannah's FYP\White15_neu.jpg"	"success"	2	"forehead"	2	NA	212	193	1	1	2	"White"	"eyes"
2	164	"C:\Hannah's FYP\White4_neu.jpg"	"romance"	2	"forehead"	2	NA	212	292	2	0	2	"White"	"forehead"
2	165	"C:\Hannah's FYP\White1_neu.jpg"	"vomit"	2	"forehead"	1	NA	211	209	2	1	2	"White"	"forehead"
2	166	"C:\Hannah's FYP\White18_neu.jpg"	"love"	2	"forehead"	2	NA	212	264	1	1	2	"White"	"nose"
2	167	"C:\Hannah's FYP\White6_neu.jpg"	"paradise"	2	"forehead"	2	NA	212	495	2	0	2	"White"	"forehead"
2	168	"C:\Hannah's FYP\White14_neu.jpg"	"love"	2	"forehead"	2	NA	212	257	2	0	2	"White"	"eyes"
2	169	"C:\Hannah's FYP\Black3_neu.jpg"	"pest"	1	"forehead"	1	NA	111	551	1	0	2	"Black"	"forehead"
2	170	"C:\Hannah's FYP\White22_neu.jpg"	"garbage"	2	"forehead"	1	NA	211	313	2	1	2	"White"	"nose"
2	171	"C:\Hannah's FYP\White17_neu.jpg"	"poison"	2	"forehead"	1	NA	211	526	1	0	2	"White"	"nose"
2	172	"C:\Hannah's FYP\Black18_neu.jpg"	"romance"	1	"forehead"	2	NA	112	282	1	1	2	"Black"	"nose"
2	173	"C:\Hannah's FYP\Black20_neu.jpg"	"poison"	1	"forehead"	1	NA	111	509	1	0	2	"Black"	"nose"
2	174	"C:\Hannah's FYP\White11_neu.jpg"	"disgust"	2	"forehead"	1	NA	211	297	2	1	2	"White"	"eyes"
2	175	"C:\Hannah's FYP\Black22_neu.jpg"	"vomit"	1	"forehead"	1	NA	111	277	1	0	2	"Black"	"nose"
2	176	"C:\Hannah's FYP\Black15_neu.jpg"	"garbage"	1	"forehead"	1	NA	111	404	1	0	2	"Black"	"eyes"
2	177	"C:\Hannah's FYP\Black10_neu.jpg"	"paradise"	1	"forehead"	2	NA	112	1029	1	1	2	"Black"	"eyes"
2	178	"C:\Hannah's FYP\Black12_neu.jpg"	"vacation"	1	"forehead"	2	NA	112	539	2	0	2	"Black"	"eyes"
2	179	"C:\Hannah's FYP\Black22_neu.jpg"	"joy"	1	"forehead"	2	NA	112	452	2	0	2	"Black"	"nose"
2	180	"C:\Hannah's FYP\White1_neu.jpg"	"smile"	2	"forehead"	2	NA	212	171	2	0	2	"White"	"forehead"
2	181	"C:\Hannah's FYP\Black1_neu.jpg"	"joy"	1	"forehead"	2	NA	112	310	2	0	2	"Black"	"forehead"
2	182	"C:\Hannah's FYP\White19_neu.jpg"	"smile"	2	"forehead"	2	NA	212	392	2	0	2	"White"	"nose"
2	183	"C:\Hannah's FYP\White9_neu.jpg"	"poison"	2	"forehead"	1	NA	211	98	2	1	2	"White"	"eyes"
2	184	"C:\Hannah's FYP\Black17_neu.jpg"	"sewage"	1	"forehead"	1	NA	111	230	1	0	2	"Black"	"nose"
2	185	"C:\Hannah's FYP\White20_neu.jpg"	"romance"	2	"forehead"	2	NA	212	148	1	1	2	"White"	"nose"
2	186	"C:\Hannah's FYP\Black14_neu.jpg"	"cockroach"	1	"forehead"	1	NA	111	480	1	0	2	"Black"	"eyes"
2	187	"C:\Hannah's FYP\Black9_neu.jpg"	"pest"	1	"forehead"	1	NA	111	238	2	1	2	"Black"	"eyes"
2	188	"C:\Hannah's FYP\White13_neu.jpg"	"cockroach"	2	"forehead"	1	NA	211	278	1	0	2	"White"	"eyes"
2	189	"C:\Hannah's FYP\White23_neu.jpg"	"joy"	2	"forehead"	2	NA	212	265	1	1	2	"White"	"nose"
2	190	"C:\Hannah's FYP\White19_neu.jpg"	"joy"	2	"forehead"	2	NA	212	590	2	0	2	"White"	"nose"
2	191	"C:\Hannah's FYP\White7_neu.jpg"	"sewage"	2	"forehead"	1	NA	211	391	1	0	2	"White"	"forehead"
2	192	"C:\Hannah's FYP\White1_neu.jpg"	"joy"	2	"forehead"	2	NA	212	232	2	0	2	"White"	"forehead"
3	1	"C:\Hannah's FYP\White42_smi.jpg"	""	2	"nose"	NA	2	232	18702	1	1	2	"White"	"forehead"
3	2	"C:\Hannah's FYP\White4_smi.jpg"	""	2	"forehead"	NA	1	211	789	1	0	2	"White"	"forehead"
3	3	"C:\Hannah's FYP\White17_smi.jpg"	""	2	"nose"	NA	1	231	1293	2	1	2	"White"	"nose"
3	4	"C:\Hannah's FYP\White44_smi.jpg"	""	2	"nose"	NA	2	232	848	2	0	2	"White"	"forehead"
3	5	"C:\Hannah's FYP\White5_smi.jpg"	""	2	"forehead"	NA	1	211	486	1	0	2	"White"	"forehead"
3	6	"C:\Hannah's FYP\White41_smi.jpg"	""	2	"nose"	NA	2	232	404	2	0	2	"White"	"forehead"
3	7	"C:\Hannah's FYP\Black14_smi.jpg"	""	1	"eyes"	NA	1	121	628	1	0	2	"Black"	"eyes"
3	8	"C:\Hannah's FYP\Black47_smi.jpg"	""	1	"nose"	NA	2	132	755	2	0	2	"Black"	"forehead"
3	9	"C:\Hannah's FYP\Black24_smi.jpg"	""	1	"nose"	NA	1	131	428	2	1	2	"Black"	"nose"
3	10	"C:\Hannah's FYP\White34_smi.jpg"	""	2	"eyes"	NA	2	222	492	2	0	2	"White"	"forehead"
3	11	"C:\Hannah's FYP\White21_smi.jpg"	""	2	"nose"	NA	1	231	1120	1	0	2	"White"	"nose"
3	12	"C:\Hannah's FYP\Black15_smi.jpg"	""	1	"eyes"	NA	1	121	450	1	0	2	"Black"	"eyes"
3	13	"C:\Hannah's FYP\White23_smi.jpg"	""	2	"nose"	NA	1	231	1129	1	0	2	"White"	"nose"
3	14	"C:\Hannah's FYP\White32_smi.jpg"	""	2	"forehead"	NA	2	212	211	2	0	2	"White"	"forehead"
3	15	"C:\Hannah's FYP\Black10_smi.jpg"	""	1	"eyes"	NA	1	121	300	1	0	2	"Black"	"eyes"
3	16	"C:\Hannah's FYP\Black12_smi.jpg"	""	1	"eyes"	NA	1	121	529	1	0	2	"Black"	"eyes"
3	17	"C:\Hannah's FYP\White11_smi.jpg"	""	2	"eyes"	NA	1	221	460	1	0	2	"White"	"eyes"
3	18	"C:\Hannah's FYP\Black7_smi.jpg"	""	1	"forehead"	NA	1	111	1003	2	1	2	"Black"	"forehead"
3	19	"C:\Hannah's FYP\Black42_smi.jpg"	""	1	"nose"	NA	2	132	393	2	0	2	"Black"	"forehead"
3	20	"C:\Hannah's FYP\White46_smi.jpg"	""	2	"nose"	NA	2	232	418	2	0	2	"White"	"forehead"
3	21	"C:\Hannah's FYP\Black36_smi.jpg"	""	1	"eyes"	NA	2	122	562	1	1	2	"Black"	"forehead"
3	22	"C:\Hannah's FYP\Black17_smi.jpg"	""	1	"nose"	NA	1	131	508	2	1	2	"Black"	"nose"
3	23	"C:\Hannah's FYP\Black34_smi.jpg"	""	1	"eyes"	NA	2	122	688	2	0	2	"Black"	"forehead"
3	24	"C:\Hannah's FYP\Black9_smi.jpg"	""	1	"eyes"	NA	1	121	124	1	0	2	"Black"	"eyes"
3	25	"C:\Hannah's FYP\White1_smi.jpg"	""	2	"forehead"	NA	1	211	289	1	0	2	"White"	"forehead"
3	26	"C:\Hannah's FYP\White33_smi.jpg"	""	2	"eyes"	NA	2	222	310	2	0	2	"White"	"forehead"
3	27	"C:\Hannah's FYP\Black28_smi.jpg"	""	1	"forehead"	NA	2	112	650	2	0	2	"Black"	"forehead"
3	28	"C:\Hannah's FYP\White6_smi.jpg"	""	2	"forehead"	NA	1	211	352	2	1	2	"White"	"forehead"
3	29	"C:\Hannah's FYP\White12_smi.jpg"	""	2	"eyes"	NA	1	221	306	2	1	2	"White"	"eyes"
3	30	"C:\Hannah's FYP\White3_smi.jpg"	""	2	"forehead"	NA	1	211	183	1	0	2	"White"	"forehead"
3	31	"C:\Hannah's FYP\Black48_smi.jpg"	""	1	"nose"	NA	2	132	392	1	1	2	"Black"	"forehead"
3	32	"C:\Hannah's FYP\White45_smi.jpg"	""	2	"nose"	NA	2	232	385	2	0	2	"White"	"forehead"
3	33	"C:\Hannah's FYP\Black38_smi.jpg"	""	1	"eyes"	NA	2	122	371	2	0	2	"Black"	"forehead"
3	34	"C:\Hannah's FYP\Black23_smi.jpg"	""	1	"nose"	NA	1	131	277	2	1	2	"Black"	"nose"
3	35	"C:\Hannah's FYP\White30_smi.jpg"	""	2	"forehead"	NA	2	212	387	2	0	2	"White"	"forehead"
3	36	"C:\Hannah's FYP\Black4_smi.jpg"	""	1	"forehead"	NA	1	111	372	2	1	2	"Black"	"forehead"
3	37	"C:\Hannah's FYP\Black11_smi.jpg"	""	1	"eyes"	NA	1	121	174	1	0	2	"Black"	"eyes"
3	38	"C:\Hannah's FYP\White39_smi.jpg"	""	2	"eyes"	NA	2	222	497	2	0	2	"White"	"eyes"
3	39	"C:\Hannah's FYP\White16_smi.jpg"	""	2	"eyes"	NA	1	221	525	1	0	2	"White"	"eyes"
3	40	"C:\Hannah's FYP\Black46_smi.jpg"	""	1	"nose"	NA	2	132	257	2	0	2	"Black"	"forehead"
3	41	"C:\Hannah's FYP\Black33_smi.jpg"	""	1	"eyes"	NA	2	122	199	2	0	2	"Black"	"forehead"
3	42	"C:\Hannah's FYP\Black13_smi.jpg"	""	1	"eyes"	NA	1	121	360	2	1	2	"Black"	"eyes"
3	43	"C:\Hannah's FYP\White7_smi.jpg"	""	2	"forehead"	NA	1	211	243	1	0	2	"White"	"forehead"
3	44	"C:\Hannah's FYP\White15_smi.jpg"	""	2	"eyes"	NA	1	221	203	1	0	2	"White"	"eyes"
3	45	"C:\Hannah's FYP\White26_smi.jpg"	""	2	"forehead"	NA	2	212	260	2	0	2	"White"	"forehead"
3	46	"C:\Hannah's FYP\Black25_smi.jpg"	""	1	"forehead"	NA	2	112	363	1	1	2	"Black"	"forehead"
3	47	"C:\Hannah's FYP\White22_smi.jpg"	""	2	"nose"	NA	1	231	333	2	1	2	"White"	"nose"
3	48	"C:\Hannah's FYP\White47_smi.jpg"	""	2	"nose"	NA	2	232	272	2	0	2	"White"	"forehead"
3	49	"C:\Hannah's FYP\White29_smi.jpg"	""	2	"forehead"	NA	2	212	326	2	0	2	"White"	"eyes"
3	50	"C:\Hannah's FYP\White8_smi.jpg"	""	2	"forehead"	NA	1	211	187	1	0	2	"White"	"forehead"
3	51	"C:\Hannah's FYP\White13_smi.jpg"	""	2	"eyes"	NA	1	221	420	1	0	2	"White"	"eyes"
3	52	"C:\Hannah's FYP\Black3_smi.jpg"	""	1	"forehead"	NA	1	111	420	2	1	2	"Black"	"forehead"
3	53	"C:\Hannah's FYP\Black43_smi.jpg"	""	1	"nose"	NA	2	132	276	2	0	2	"Black"	"forehead"
3	54	"C:\Hannah's FYP\White35_smi.jpg"	""	2	"eyes"	NA	2	222	450	1	1	2	"White"	"forehead"
3	55	"C:\Hannah's FYP\Black2_smi.jpg"	""	1	"forehead"	NA	1	111	336	1	0	2	"Black"	"forehead"
3	56	"C:\Hannah's FYP\Black27_smi.jpg"	""	1	"forehead"	NA	2	112	451	2	0	2	"Black"	"forehead"
3	57	"C:\Hannah's FYP\White18_smi.jpg"	""	2	"nose"	NA	1	231	193	2	1	2	"White"	"nose"
3	58	"C:\Hannah's FYP\Black21_smi.jpg"	""	1	"nose"	NA	1	131	531	1	0	2	"Black"	"nose"
3	59	"C:\Hannah's FYP\Black26_smi.jpg"	""	1	"forehead"	NA	2	112	382	2	0	2	"Black"	"forehead"
3	60	"C:\Hannah's FYP\White28_smi.jpg"	""	2	"forehead"	NA	2	212	449	2	0	2	"White"	"forehead"
3	61	"C:\Hannah's FYP\White36_smi.jpg"	""	2	"eyes"	NA	2	222	536	2	0	2	"White"	"forehead"
3	62	"C:\Hannah's FYP\White27_smi.jpg"	""	2	"forehead"	NA	2	212	347	2	0	2	"White"	"forehead"
3	63	"C:\Hannah's FYP\Black18_smi.jpg"	""	1	"nose"	NA	1	131	470	1	0	2	"Black"	"nose"
3	64	"C:\Hannah's FYP\Black44_smi.jpg"	""	1	"nose"	NA	2	132	163	1	1	2	"Black"	"forehead"
3	65	"C:\Hannah's FYP\Black30_smi.jpg"	""	1	"forehead"	NA	2	112	342	2	0	2	"Black"	"forehead"
3	66	"C:\Hannah's FYP\Black45_smi.jpg"	""	1	"nose"	NA	2	132	233	2	0	2	"Black"	"forehead"
3	67	"C:\Hannah's FYP\Black29_smi.jpg"	""	1	"forehead"	NA	2	112	370	2	0	2	"Black"	"eyes"
3	68	"C:\Hannah's FYP\White9_smi.jpg"	""	2	"eyes"	NA	1	221	435	2	1	2	"White"	"eyes"
3	69	"C:\Hannah's FYP\White24_smi.jpg"	""	2	"nose"	NA	1	231	474	2	1	2	"White"	"nose"
3	70	"C:\Hannah's FYP\White38_smi.jpg"	""	2	"eyes"	NA	2	222	336	2	0	2	"White"	"forehead"
3	71	"C:\Hannah's FYP\White2_smi.jpg"	""	2	"forehead"	NA	1	211	843	1	0	2	"White"	"forehead"
3	72	"C:\Hannah's FYP\Black31_smi.jpg"	""	1	"forehead"	NA	2	112	313	2	0	2	"Black"	"forehead"
3	73	"C:\Hannah's FYP\Black19_smi.jpg"	""	1	"nose"	NA	1	131	421	1	0	2	"Black"	"nose"
3	74	"C:\Hannah's FYP\Black5_smi.jpg"	""	1	"forehead"	NA	1	111	509	2	1	2	"Black"	"forehead"
3	75	"C:\Hannah's FYP\Black41_smi.jpg"	""	1	"nose"	NA	2	132	201	2	0	2	"Black"	"forehead"
3	76	"C:\Hannah's FYP\Black8_smi.jpg"	""	1	"forehead"	NA	1	111	714	2	1	2	"Black"	"forehead"
3	77	"C:\Hannah's FYP\Black16_smi.jpg"	""	1	"eyes"	NA	1	121	413	1	0	2	"Black"	"eyes"
3	78	"C:\Hannah's FYP\White37_smi.jpg"	""	2	"eyes"	NA	2	222	374	2	0	2	"White"	"forehead"
3	79	"C:\Hannah's FYP\Black20_smi.jpg"	""	1	"nose"	NA	1	131	407	2	1	2	"Black"	"nose"
3	80	"C:\Hannah's FYP\Black6_smi.jpg"	""	1	"forehead"	NA	1	111	568	2	1	2	"Black"	"forehead"
3	81	"C:\Hannah's FYP\Black22_smi.jpg"	""	1	"nose"	NA	1	131	832	1	0	2	"Black"	"nose"
3	82	"C:\Hannah's FYP\White43_smi.jpg"	""	2	"nose"	NA	2	232	496	2	0	2	"White"	"forehead"
3	83	"C:\Hannah's FYP\White14_smi.jpg"	""	2	"eyes"	NA	1	221	244	1	0	2	"White"	"eyes"
3	84	"C:\Hannah's FYP\Black39_smi.jpg"	""	1	"eyes"	NA	2	122	356	2	0	2	"Black"	"eyes"
3	85	"C:\Hannah's FYP\White19_smi.jpg"	""	2	"nose"	NA	1	231	222	1	0	2	"White"	"nose"
3	86	"C:\Hannah's FYP\Black35_smi.jpg"	""	1	"eyes"	NA	2	122	375	1	1	2	"Black"	"forehead"
3	87	"C:\Hannah's FYP\White10_smi.jpg"	""	2	"eyes"	NA	1	221	329	1	0	2	"White"	"eyes"
3	88	"C:\Hannah's FYP\Black32_smi.jpg"	""	1	"forehead"	NA	2	112	141	2	0	2	"Black"	"forehead"
3	89	"C:\Hannah's FYP\White25_smi.jpg"	""	2	"forehead"	NA	2	212	225	2	0	2	"White"	"forehead"
3	90	"C:\Hannah's FYP\White40_smi.jpg"	""	2	"eyes"	NA	2	222	449	2	0	2	"White"	"forehead"
3	91	"C:\Hannah's FYP\White31_smi.jpg"	""	2	"forehead"	NA	2	212	424	2	0	2	"White"	"forehead"
3	92	"C:\Hannah's FYP\Black1_smi.jpg"	""	1	"forehead"	NA	1	111	360	2	1	2	"Black"	"forehead"
3	93	"C:\Hannah's FYP\White48_smi.jpg"	""	2	"nose"	NA	2	232	427	2	0	2	"White"	"forehead"
3	94	"C:\Hannah's FYP\Black40_smi.jpg"	""	1	"eyes"	NA	2	122	210	1	1	2	"Black"	"forehead"
3	95	"C:\Hannah's FYP\Black37_smi.jpg"	""	1	"eyes"	NA	2	122	363	2	0	2	"Black"	"forehead"
3	96	"C:\Hannah's FYP\White20_smi.jpg"	""	2	"nose"	NA	1	231	205	2	1	2	"White"	"nose"
1	1	""	"success"	NA	""	2	NA	NA	1236	1	NA	3	NA	NA
1	2	""	"vomit"	NA	""	1	NA	NA	2480	1	NA	3	NA	NA
1	3	""	"love"	NA	""	2	NA	NA	671	2	NA	3	NA	NA
1	4	""	"romance"	NA	""	2	NA	NA	923	2	NA	3	NA	NA
1	5	""	"disgust"	NA	""	1	NA	NA	525	1	NA	3	NA	NA
1	6	""	"paradise"	NA	""	2	NA	NA	576	2	NA	3	NA	NA
1	7	""	"joy"	NA	""	2	NA	NA	513	2	NA	3	NA	NA
1	8	""	"garbage"	NA	""	1	NA	NA	532	1	NA	3	NA	NA
1	9	""	"beauty"	NA	""	2	NA	NA	383	2	NA	3	NA	NA
1	10	""	"poison"	NA	""	1	NA	NA	528	1	NA	3	NA	NA
1	11	""	"pest"	NA	""	1	NA	NA	306	2	NA	3	NA	NA
1	12	""	"joy"	NA	""	2	NA	NA	495	2	NA	3	NA	NA
1	13	""	"cockroach"	NA	""	1	NA	NA	724	1	NA	3	NA	NA
1	14	""	"poison"	NA	""	1	NA	NA	542	1	NA	3	NA	NA
1	15	""	"vacation"	NA	""	2	NA	NA	656	2	NA	3	NA	NA
1	16	""	"pest"	NA	""	1	NA	NA	741	1	NA	3	NA	NA
1	17	""	"love"	NA	""	2	NA	NA	486	2	NA	3	NA	NA
1	18	""	"disgust"	NA	""	1	NA	NA	451	1	NA	3	NA	NA
1	19	""	"smile"	NA	""	2	NA	NA	544	2	NA	3	NA	NA
1	20	""	"despair"	NA	""	1	NA	NA	515	1	NA	3	NA	NA
1	21	""	"vacation"	NA	""	2	NA	NA	502	2	NA	3	NA	NA
1	22	""	"beauty"	NA	""	2	NA	NA	594	2	NA	3	NA	NA
1	23	""	"sewage"	NA	""	1	NA	NA	514	1	NA	3	NA	NA
1	24	""	"despair"	NA	""	1	NA	NA	565	1	NA	3	NA	NA
1	25	""	"success"	NA	""	2	NA	NA	502	2	NA	3	NA	NA
1	26	""	"cockroach"	NA	""	1	NA	NA	522	1	NA	3	NA	NA
1	27	""	"sewage"	NA	""	1	NA	NA	677	1	NA	3	NA	NA
1	28	""	"smile"	NA	""	2	NA	NA	529	2	NA	3	NA	NA
1	29	""	"garbage"	NA	""	1	NA	NA	508	1	NA	3	NA	NA
1	30	""	"paradise"	NA	""	2	NA	NA	528	2	NA	3	NA	NA
1	31	""	"vomit"	NA	""	1	NA	NA	410	1	NA	3	NA	NA
1	32	""	"romance"	NA	""	2	NA	NA	338	2	NA	3	NA	NA
2	1	"C:\Hannah's FYP\White10_neu.jpg"	"paradise"	2	"forehead"	2	NA	212	824	2	0	3	"White"	"eyes"
2	2	"C:\Hannah's FYP\White23_neu.jpg"	"beauty"	2	"forehead"	2	NA	212	563	2	0	3	"White"	"nose"
2	3	"C:\Hannah's FYP\White3_neu.jpg"	"disgust"	2	"forehead"	1	NA	211	694	1	0	3	"White"	"forehead"
2	4	"C:\Hannah's FYP\White23_neu.jpg"	"success"	2	"forehead"	2	NA	212	510	2	0	3	"White"	"nose"
2	5	"C:\Hannah's FYP\White15_neu.jpg"	"romance"	2	"forehead"	2	NA	212	827	2	0	3	"White"	"eyes"
2	6	"C:\Hannah's FYP\Black19_neu.jpg"	"paradise"	1	"forehead"	2	NA	112	642	2	0	3	"Black"	"nose"
2	7	"C:\Hannah's FYP\Black17_neu.jpg"	"vacation"	1	"forehead"	2	NA	112	542	2	0	3	"Black"	"nose"
2	8	"C:\Hannah's FYP\White19_neu.jpg"	"smile"	2	"forehead"	2	NA	212	519	2	0	3	"White"	"nose"
2	9	"C:\Hannah's FYP\Black1_neu.jpg"	"beauty"	1	"forehead"	2	NA	112	475	2	0	3	"Black"	"forehead"
2	10	"C:\Hannah's FYP\White18_neu.jpg"	"poison"	2	"forehead"	1	NA	211	661	1	0	3	"White"	"nose"
2	11	"C:\Hannah's FYP\Black4_neu.jpg"	"disgust"	1	"forehead"	1	NA	111	747	1	0	3	"Black"	"forehead"
2	12	"C:\Hannah's FYP\White10_neu.jpg"	"vomit"	2	"forehead"	1	NA	211	638	1	0	3	"White"	"eyes"
2	13	"C:\Hannah's FYP\Black7_neu.jpg"	"vomit"	1	"forehead"	1	NA	111	675	1	0	3	"Black"	"forehead"
2	14	"C:\Hannah's FYP\Black16_neu.jpg"	"romance"	1	"forehead"	2	NA	112	536	2	0	3	"Black"	"eyes"
2	15	"C:\Hannah's FYP\White17_neu.jpg"	"cockroach"	2	"forehead"	1	NA	211	611	1	0	3	"White"	"nose"
2	16	"C:\Hannah's FYP\Black14_neu.jpg"	"despair"	1	"forehead"	1	NA	111	868	1	0	3	"Black"	"eyes"
2	17	"C:\Hannah's FYP\Black21_neu.jpg"	"cockroach"	1	"forehead"	1	NA	111	733	1	0	3	"Black"	"nose"
2	18	"C:\Hannah's FYP\Black11_neu.jpg"	"vacation"	1	"forehead"	2	NA	112	752	2	0	3	"Black"	"eyes"
2	19	"C:\Hannah's FYP\White23_neu.jpg"	"pest"	2	"forehead"	1	NA	211	510	1	0	3	"White"	"nose"
2	20	"C:\Hannah's FYP\Black16_neu.jpg"	"beauty"	1	"forehead"	2	NA	112	498	2	0	3	"Black"	"eyes"
2	21	"C:\Hannah's FYP\Black11_neu.jpg"	"despair"	1	"forehead"	1	NA	111	696	1	0	3	"Black"	"eyes"
2	22	"C:\Hannah's FYP\Black19_neu.jpg"	"sewage"	1	"forehead"	1	NA	111	708	1	0	3	"Black"	"nose"
2	23	"C:\Hannah's FYP\White22_neu.jpg"	"smile"	2	"forehead"	2	NA	212	512	2	0	3	"White"	"nose"
2	24	"C:\Hannah's FYP\Black4_neu.jpg"	"paradise"	1	"forehead"	2	NA	112	549	2	0	3	"Black"	"forehead"
2	25	"C:\Hannah's FYP\White20_neu.jpg"	"pest"	2	"forehead"	1	NA	211	557	1	0	3	"White"	"nose"
2	26	"C:\Hannah's FYP\White4_neu.jpg"	"joy"	2	"forehead"	2	NA	212	471	2	0	3	"White"	"forehead"
2	27	"C:\Hannah's FYP\White12_neu.jpg"	"garbage"	2	"forehead"	1	NA	211	597	1	0	3	"White"	"eyes"
2	28	"C:\Hannah's FYP\Black5_neu.jpg"	"smile"	1	"forehead"	2	NA	112	566	2	0	3	"Black"	"forehead"
2	29	"C:\Hannah's FYP\White16_neu.jpg"	"success"	2	"forehead"	2	NA	212	697	2	0	3	"White"	"eyes"
2	30	"C:\Hannah's FYP\Black9_neu.jpg"	"romance"	1	"forehead"	2	NA	112	886	2	0	3	"Black"	"eyes"
2	31	"C:\Hannah's FYP\Black23_neu.jpg"	"success"	1	"forehead"	2	NA	112	735	2	0	3	"Black"	"nose"
2	32	"C:\Hannah's FYP\Black13_neu.jpg"	"vomit"	1	"forehead"	1	NA	111	713	1	0	3	"Black"	"eyes"
2	33	"C:\Hannah's FYP\White23_neu.jpg"	"despair"	2	"forehead"	1	NA	211	689	1	0	3	"White"	"nose"
2	34	"C:\Hannah's FYP\Black21_neu.jpg"	"vacation"	1	"forehead"	2	NA	112	618	2	0	3	"Black"	"nose"
2	35	"C:\Hannah's FYP\Black15_neu.jpg"	"poison"	1	"forehead"	1	NA	111	786	1	0	3	"Black"	"eyes"
2	36	"C:\Hannah's FYP\White5_neu.jpg"	"love"	2	"forehead"	2	NA	212	498	2	0	3	"White"	"forehead"
2	37	"C:\Hannah's FYP\White8_neu.jpg"	"sewage"	2	"forehead"	1	NA	211	664	1	0	3	"White"	"forehead"
2	38	"C:\Hannah's FYP\White2_neu.jpg"	"beauty"	2	"forehead"	2	NA	212	646	2	0	3	"White"	"forehead"
2	39	"C:\Hannah's FYP\White2_neu.jpg"	"paradise"	2	"forehead"	2	NA	212	629	2	0	3	"White"	"forehead"
2	40	"C:\Hannah's FYP\Black15_neu.jpg"	"love"	1	"forehead"	2	NA	112	636	2	0	3	"Black"	"eyes"
2	41	"C:\Hannah's FYP\Black23_neu.jpg"	"vomit"	1	"forehead"	1	NA	111	752	1	0	3	"Black"	"nose"
2	42	"C:\Hannah's FYP\White21_neu.jpg"	"vacation"	2	"forehead"	2	NA	212	759	2	0	3	"White"	"nose"
2	43	"C:\Hannah's FYP\Black2_neu.jpg"	"smile"	1	"forehead"	2	NA	112	1056	2	0	3	"Black"	"forehead"
2	44	"C:\Hannah's FYP\Black24_neu.jpg"	"pest"	1	"forehead"	1	NA	111	755	1	0	3	"Black"	"nose"
2	45	"C:\Hannah's FYP\White20_neu.jpg"	"disgust"	2	"forehead"	1	NA	211	857	1	0	3	"White"	"nose"
2	46	"C:\Hannah's FYP\White7_neu.jpg"	"vacation"	2	"forehead"	2	NA	212	758	2	0	3	"White"	"forehead"
2	47	"C:\Hannah's FYP\Black23_neu.jpg"	"despair"	1	"forehead"	1	NA	111	605	1	0	3	"Black"	"nose"
2	48	"C:\Hannah's FYP\White15_neu.jpg"	"pest"	2	"forehead"	1	NA	211	966	1	0	3	"White"	"eyes"
2	49	"C:\Hannah's FYP\Black20_neu.jpg"	"love"	1	"forehead"	2	NA	112	627	2	0	3	"Black"	"nose"
2	50	"C:\Hannah's FYP\Black2_neu.jpg"	"cockroach"	1	"forehead"	1	NA	111	666	1	0	3	"Black"	"forehead"
2	51	"C:\Hannah's FYP\Black2_neu.jpg"	"pest"	1	"forehead"	1	NA	111	569	1	0	3	"Black"	"forehead"
2	52	"C:\Hannah's FYP\Black9_neu.jpg"	"smile"	1	"forehead"	2	NA	112	402	2	0	3	"Black"	"eyes"
2	53	"C:\Hannah's FYP\Black21_neu.jpg"	"love"	1	"forehead"	2	NA	112	592	1	1	3	"Black"	"nose"
2	54	"C:\Hannah's FYP\White22_neu.jpg"	"disgust"	2	"forehead"	1	NA	211	649	1	0	3	"White"	"nose"
2	55	"C:\Hannah's FYP\White12_neu.jpg"	"smile"	2	"forehead"	2	NA	212	520	2	0	3	"White"	"eyes"
2	56	"C:\Hannah's FYP\White22_neu.jpg"	"paradise"	2	"forehead"	2	NA	212	460	2	0	3	"White"	"nose"
2	57	"C:\Hannah's FYP\Black6_neu.jpg"	"vacation"	1	"forehead"	2	NA	112	610	2	0	3	"Black"	"forehead"
2	58	"C:\Hannah's FYP\Black7_neu.jpg"	"love"	1	"forehead"	2	NA	112	696	2	0	3	"Black"	"forehead"
2	59	"C:\Hannah's FYP\Black24_neu.jpg"	"sewage"	1	"forehead"	1	NA	111	890	1	0	3	"Black"	"nose"
2	60	"C:\Hannah's FYP\Black3_neu.jpg"	"romance"	1	"forehead"	2	NA	112	525	2	0	3	"Black"	"forehead"
2	61	"C:\Hannah's FYP\White14_neu.jpg"	"despair"	2	"forehead"	1	NA	211	509	1	0	3	"White"	"eyes"
2	62	"C:\Hannah's FYP\White17_neu.jpg"	"joy"	2	"forehead"	2	NA	212	450	2	0	3	"White"	"nose"
2	63	"C:\Hannah's FYP\Black19_neu.jpg"	"romance"	1	"forehead"	2	NA	112	505	2	0	3	"Black"	"nose"
2	64	"C:\Hannah's FYP\Black9_neu.jpg"	"garbage"	1	"forehead"	1	NA	111	589	1	0	3	"Black"	"eyes"
2	65	"C:\Hannah's FYP\White1_neu.jpg"	"despair"	2	"forehead"	1	NA	211	742	1	0	3	"White"	"forehead"
2	66	"C:\Hannah's FYP\White4_neu.jpg"	"sewage"	2	"forehead"	1	NA	211	585	1	0	3	"White"	"forehead"
2	67	"C:\Hannah's FYP\White12_neu.jpg"	"pest"	2	"forehead"	1	NA	211	626	1	0	3	"White"	"eyes"
2	68	"C:\Hannah's FYP\White22_neu.jpg"	"poison"	2	"forehead"	1	NA	211	754	1	0	3	"White"	"nose"
2	69	"C:\Hannah's FYP\Black15_neu.jpg"	"cockroach"	1	"forehead"	1	NA	111	539	1	0	3	"Black"	"eyes"
2	70	"C:\Hannah's FYP\Black1_neu.jpg"	"poison"	1	"forehead"	1	NA	111	887	1	0	3	"Black"	"forehead"
2	71	"C:\Hannah's FYP\White14_neu.jpg"	"paradise"	2	"forehead"	2	NA	212	703	2	0	3	"White"	"eyes"
2	72	"C:\Hannah's FYP\White4_neu.jpg"	"cockroach"	2	"forehead"	1	NA	211	595	1	0	3	"White"	"forehead"
2	73	"C:\Hannah's FYP\Black12_neu.jpg"	"love"	1	"forehead"	2	NA	112	668	2	0	3	"Black"	"eyes"
2	74	"C:\Hannah's FYP\Black7_neu.jpg"	"beauty"	1	"forehead"	2	NA	112	592	2	0	3	"Black"	"forehead"
2	75	"C:\Hannah's FYP\Black20_neu.jpg"	"pest"	1	"forehead"	1	NA	111	900	1	0	3	"Black"	"nose"
2	76	"C:\Hannah's FYP\Black5_neu.jpg"	"disgust"	1	"forehead"	1	NA	111	953	1	0	3	"Black"	"forehead"
2	77	"C:\Hannah's FYP\Black20_neu.jpg"	"poison"	1	"forehead"	1	NA	111	949	1	0	3	"Black"	"nose"
2	78	"C:\Hannah's FYP\Black14_neu.jpg"	"paradise"	1	"forehead"	2	NA	112	792	2	0	3	"Black"	"eyes"
2	79	"C:\Hannah's FYP\White9_neu.jpg"	"cockroach"	2	"forehead"	1	NA	211	960	1	0	3	"White"	"eyes"
2	80	"C:\Hannah's FYP\Black10_neu.jpg"	"sewage"	1	"forehead"	1	NA	111	753	1	0	3	"Black"	"eyes"
2	81	"C:\Hannah's FYP\Black4_neu.jpg"	"sewage"	1	"forehead"	1	NA	111	659	1	0	3	"Black"	"forehead"
2	82	"C:\Hannah's FYP\White3_neu.jpg"	"garbage"	2	"forehead"	1	NA	211	649	1	0	3	"White"	"forehead"
2	83	"C:\Hannah's FYP\White15_neu.jpg"	"beauty"	2	"forehead"	2	NA	212	600	2	0	3	"White"	"eyes"
2	84	"C:\Hannah's FYP\White18_neu.jpg"	"sewage"	2	"forehead"	1	NA	211	990	1	0	3	"White"	"nose"
2	85	"C:\Hannah's FYP\White6_neu.jpg"	"despair"	2	"forehead"	1	NA	211	637	1	0	3	"White"	"forehead"
2	86	"C:\Hannah's FYP\Black17_neu.jpg"	"vomit"	1	"forehead"	1	NA	111	546	1	0	3	"Black"	"nose"
2	87	"C:\Hannah's FYP\White19_neu.jpg"	"beauty"	2	"forehead"	2	NA	212	539	2	0	3	"White"	"nose"
2	88	"C:\Hannah's FYP\Black6_neu.jpg"	"cockroach"	1	"forehead"	1	NA	111	830	1	0	3	"Black"	"forehead"
2	89	"C:\Hannah's FYP\Black18_neu.jpg"	"joy"	1	"forehead"	2	NA	112	701	2	0	3	"Black"	"nose"
2	90	"C:\Hannah's FYP\Black17_neu.jpg"	"garbage"	1	"forehead"	1	NA	111	903	1	0	3	"Black"	"nose"
2	91	"C:\Hannah's FYP\Black3_neu.jpg"	"vomit"	1	"forehead"	1	NA	111	1209	1	0	3	"Black"	"forehead"
2	92	"C:\Hannah's FYP\White11_neu.jpg"	"disgust"	2	"forehead"	1	NA	211	615	1	0	3	"White"	"eyes"
2	93	"C:\Hannah's FYP\Black12_neu.jpg"	"success"	1	"forehead"	2	NA	112	599	2	0	3	"Black"	"eyes"
2	94	"C:\Hannah's FYP\White5_neu.jpg"	"disgust"	2	"forehead"	1	NA	211	648	1	0	3	"White"	"forehead"
2	95	"C:\Hannah's FYP\Black12_neu.jpg"	"cockroach"	1	"forehead"	1	NA	111	511	1	0	3	"Black"	"eyes"
2	96	"C:\Hannah's FYP\White8_neu.jpg"	"pest"	2	"forehead"	1	NA	211	524	1	0	3	"White"	"forehead"
2	97	"C:\Hannah's FYP\White16_neu.jpg"	"sewage"	2	"forehead"	1	NA	211	720	1	0	3	"White"	"eyes"
2	98	"C:\Hannah's FYP\Black8_neu.jpg"	"joy"	1	"forehead"	2	NA	112	577	2	0	3	"Black"	"forehead"
2	99	"C:\Hannah's FYP\White13_neu.jpg"	"vomit"	2	"forehead"	1	NA	211	611	1	0	3	"White"	"eyes"
2	100	"C:\Hannah's FYP\White24_neu.jpg"	"joy"	2	"forehead"	2	NA	212	539	2	0	3	"White"	"nose"
2	101	"C:\Hannah's FYP\White5_neu.jpg"	"poison"	2	"forehead"	1	NA	211	758	1	0	3	"White"	"forehead"
2	102	"C:\Hannah's FYP\Black4_neu.jpg"	"vacation"	1	"forehead"	2	NA	112	808	2	0	3	"Black"	"forehead"
2	103	"C:\Hannah's FYP\Black6_neu.jpg"	"success"	1	"forehead"	2	NA	112	760	2	0	3	"Black"	"forehead"
2	104	"C:\Hannah's FYP\White1_neu.jpg"	"vacation"	2	"forehead"	2	NA	212	730	2	0	3	"White"	"forehead"
2	105	"C:\Hannah's FYP\White17_neu.jpg"	"despair"	2	"forehead"	1	NA	211	757	1	0	3	"White"	"nose"
2	106	"C:\Hannah's FYP\White7_neu.jpg"	"cockroach"	2	"forehead"	1	NA	211	1087	1	0	3	"White"	"forehead"
2	107	"C:\Hannah's FYP\White3_neu.jpg"	"smile"	2	"forehead"	2	NA	212	602	2	0	3	"White"	"forehead"
2	108	"C:\Hannah's FYP\White6_neu.jpg"	"joy"	2	"forehead"	2	NA	212	715	1	1	3	"White"	"forehead"
2	109	"C:\Hannah's FYP\Black9_neu.jpg"	"pest"	1	"forehead"	1	NA	111	751	1	0	3	"Black"	"eyes"
2	110	"C:\Hannah's FYP\Black8_neu.jpg"	"sewage"	1	"forehead"	1	NA	111	847	1	0	3	"Black"	"forehead"
2	111	"C:\Hannah's FYP\Black11_neu.jpg"	"disgust"	1	"forehead"	1	NA	111	349	2	1	3	"Black"	"eyes"
2	112	"C:\Hannah's FYP\Black16_neu.jpg"	"disgust"	1	"forehead"	1	NA	111	1065	1	0	3	"Black"	"eyes"
2	113	"C:\Hannah's FYP\Black10_neu.jpg"	"beauty"	1	"forehead"	2	NA	112	2678	2	0	3	"Black"	"eyes"
2	114	"C:\Hannah's FYP\Black11_neu.jpg"	"joy"	1	"forehead"	2	NA	112	597	2	0	3	"Black"	"eyes"
2	115	"C:\Hannah's FYP\White13_neu.jpg"	"joy"	2	"forehead"	2	NA	212	526	2	0	3	"White"	"eyes"
2	116	"C:\Hannah's FYP\Black2_neu.jpg"	"success"	1	"forehead"	2	NA	112	578	2	0	3	"Black"	"forehead"
2	117	"C:\Hannah's FYP\Black20_neu.jpg"	"beauty"	1	"forehead"	2	NA	112	567	2	0	3	"Black"	"nose"
2	118	"C:\Hannah's FYP\White19_neu.jpg"	"vomit"	2	"forehead"	1	NA	211	486	1	0	3	"White"	"nose"
2	119	"C:\Hannah's FYP\White16_neu.jpg"	"love"	2	"forehead"	2	NA	212	3804	2	0	3	"White"	"eyes"
2	120	"C:\Hannah's FYP\White16_neu.jpg"	"disgust"	2	"forehead"	1	NA	211	3491	1	0	3	"White"	"eyes"
2	121	"C:\Hannah's FYP\White7_neu.jpg"	"smile"	2	"forehead"	2	NA	212	856	2	0	3	"White"	"forehead"
2	122	"C:\Hannah's FYP\White3_neu.jpg"	"love"	2	"forehead"	2	NA	212	590	1	1	3	"White"	"forehead"
2	123	"C:\Hannah's FYP\White12_neu.jpg"	"vacation"	2	"forehead"	2	NA	212	623	2	0	3	"White"	"eyes"
2	124	"C:\Hannah's FYP\White6_neu.jpg"	"paradise"	2	"forehead"	2	NA	212	566	2	0	3	"White"	"forehead"
2	125	"C:\Hannah's FYP\White18_neu.jpg"	"romance"	2	"forehead"	2	NA	212	725	2	0	3	"White"	"nose"
2	126	"C:\Hannah's FYP\White5_neu.jpg"	"romance"	2	"forehead"	2	NA	212	560	2	0	3	"White"	"forehead"
2	127	"C:\Hannah's FYP\Black17_neu.jpg"	"success"	1	"forehead"	2	NA	112	857	2	0	3	"Black"	"nose"
2	128	"C:\Hannah's FYP\White14_neu.jpg"	"smile"	2	"forehead"	2	NA	212	1043	2	0	3	"White"	"eyes"
2	129	"C:\Hannah's FYP\White2_neu.jpg"	"pest"	2	"forehead"	1	NA	211	1120	1	0	3	"White"	"forehead"
2	130	"C:\Hannah's FYP\Black22_neu.jpg"	"beauty"	1	"forehead"	2	NA	112	784	2	0	3	"Black"	"nose"
2	131	"C:\Hannah's FYP\Black6_neu.jpg"	"despair"	1	"forehead"	1	NA	111	953	1	0	3	"Black"	"forehead"
2	132	"C:\Hannah's FYP\White24_neu.jpg"	"romance"	2	"forehead"	2	NA	212	690	2	0	3	"White"	"nose"
2	133	"C:\Hannah's FYP\White10_neu.jpg"	"love"	2	"forehead"	2	NA	212	767	2	0	3	"White"	"eyes"
2	134	"C:\Hannah's FYP\Black18_neu.jpg"	"disgust"	1	"forehead"	1	NA	111	577	1	0	3	"Black"	"nose"
2	135	"C:\Hannah's FYP\Black8_neu.jpg"	"paradise"	1	"forehead"	2	NA	112	1040	2	0	3	"Black"	"forehead"
2	136	"C:\Hannah's FYP\Black15_neu.jpg"	"joy"	1	"forehead"	2	NA	112	478	2	0	3	"Black"	"eyes"
2	137	"C:\Hannah's FYP\White2_neu.jpg"	"poison"	2	"forehead"	1	NA	211	716	1	0	3	"White"	"forehead"
2	138	"C:\Hannah's FYP\White4_neu.jpg"	"success"	2	"forehead"	2	NA	212	488	2	0	3	"White"	"forehead"
2	139	"C:\Hannah's FYP\White8_neu.jpg"	"beauty"	2	"forehead"	2	NA	212	853	2	0	3	"White"	"forehead"
2	140	"C:\Hannah's FYP\Black24_neu.jpg"	"paradise"	1	"forehead"	2	NA	112	848	2	0	3	"Black"	"nose"
2	141	"C:\Hannah's FYP\Black8_neu.jpg"	"poison"	1	"forehead"	1	NA	111	1508	1	0	3	"Black"	"forehead"
2	142	"C:\Hannah's FYP\White24_neu.jpg"	"vomit"	2	"forehead"	1	NA	211	766	1	0	3	"White"	"nose"
2	143	"C:\Hannah's FYP\White11_neu.jpg"	"success"	2	"forehead"	2	NA	212	504	2	0	3	"White"	"eyes"
2	144	"C:\Hannah's FYP\White9_neu.jpg"	"sewage"	2	"forehead"	1	NA	211	605	1	0	3	"White"	"eyes"
2	145	"C:\Hannah's FYP\White18_neu.jpg"	"love"	2	"forehead"	2	NA	212	738	2	0	3	"White"	"nose"
2	146	"C:\Hannah's FYP\White13_neu.jpg"	"vacation"	2	"forehead"	2	NA	212	636	2	0	3	"White"	"eyes"
2	147	"C:\Hannah's FYP\White24_neu.jpg"	"garbage"	2	"forehead"	1	NA	211	587	1	0	3	"White"	"nose"
2	148	"C:\Hannah's FYP\Black16_neu.jpg"	"sewage"	1	"forehead"	1	NA	111	604	1	0	3	"Black"	"eyes"
2	149	"C:\Hannah's FYP\Black22_neu.jpg"	"disgust"	1	"forehead"	1	NA	111	986	1	0	3	"Black"	"nose"
2	150	"C:\Hannah's FYP\White20_neu.jpg"	"paradise"	2	"forehead"	2	NA	212	526	2	0	3	"White"	"nose"
2	151	"C:\Hannah's FYP\Black12_neu.jpg"	"poison"	1	"forehead"	1	NA	111	602	1	0	3	"Black"	"eyes"
2	152	"C:\Hannah's FYP\White21_neu.jpg"	"cockroach"	2	"forehead"	1	NA	211	575	2	1	3	"White"	"nose"
2	153	"C:\Hannah's FYP\Black10_neu.jpg"	"paradise"	1	"forehead"	2	NA	112	1952	2	0	3	"Black"	"eyes"
2	154	"C:\Hannah's FYP\Black21_neu.jpg"	"garbage"	1	"forehead"	1	NA	111	500	1	0	3	"Black"	"nose"
2	155	"C:\Hannah's FYP\White6_neu.jpg"	"vomit"	2	"forehead"	1	NA	211	520	1	0	3	"White"	"forehead"
2	156	"C:\Hannah's FYP\Black3_neu.jpg"	"garbage"	1	"forehead"	1	NA	111	947	1	0	3	"Black"	"forehead"
2	157	"C:\Hannah's FYP\White8_neu.jpg"	"success"	2	"forehead"	2	NA	212	573	2	0	3	"White"	"forehead"
2	158	"C:\Hannah's FYP\White13_neu.jpg"	"garbage"	2	"forehead"	1	NA	211	831	1	0	3	"White"	"eyes"
2	159	"C:\Hannah's FYP\White10_neu.jpg"	"despair"	2	"forehead"	1	NA	211	598	1	0	3	"White"	"eyes"
2	160	"C:\Hannah's FYP\Black18_neu.jpg"	"cockroach"	1	"forehead"	1	NA	111	1127	1	0	3	"Black"	"nose"
2	161	"C:\Hannah's FYP\Black10_neu.jpg"	"vomit"	1	"forehead"	1	NA	111	721	1	0	3	"Black"	"eyes"
2	162	"C:\Hannah's FYP\White20_neu.jpg"	"vacation"	2	"forehead"	2	NA	212	1769	2	0	3	"White"	"nose"
2	163	"C:\Hannah's FYP\White17_neu.jpg"	"success"	2	"forehead"	2	NA	212	463	2	0	3	"White"	"nose"
2	164	"C:\Hannah's FYP\Black13_neu.jpg"	"pest"	1	"forehead"	1	NA	111	670	1	0	3	"Black"	"eyes"
2	165	"C:\Hannah's FYP\Black14_neu.jpg"	"smile"	1	"forehead"	2	NA	112	812	2	0	3	"Black"	"eyes"
2	166	"C:\Hannah's FYP\Black7_neu.jpg"	"garbage"	1	"forehead"	1	NA	111	681	1	0	3	"Black"	"forehead"
2	167	"C:\Hannah's FYP\White11_neu.jpg"	"poison"	2	"forehead"	1	NA	211	838	1	0	3	"White"	"eyes"
2	168	"C:\Hannah's FYP\Black19_neu.jpg"	"despair"	1	"forehead"	1	NA	111	772	1	0	3	"Black"	"nose"
2	169	"C:\Hannah's FYP\White7_neu.jpg"	"garbage"	2	"forehead"	1	NA	211	541	1	0	3	"White"	"forehead"
2	170	"C:\Hannah's FYP\Black5_neu.jpg"	"romance"	1	"forehead"	2	NA	112	680	2	0	3	"Black"	"forehead"
2	171	"C:\Hannah's FYP\White21_neu.jpg"	"love"	2	"forehead"	2	NA	212	674	2	0	3	"White"	"nose"
2	172	"C:\Hannah's FYP\Black3_neu.jpg"	"love"	1	"forehead"	2	NA	112	510	2	0	3	"Black"	"forehead"
2	173	"C:\Hannah's FYP\White1_neu.jpg"	"vomit"	2	"forehead"	1	NA	211	595	1	0	3	"White"	"forehead"
2	174	"C:\Hannah's FYP\Black24_neu.jpg"	"romance"	1	"forehead"	2	NA	112	513	2	0	3	"Black"	"nose"
2	175	"C:\Hannah's FYP\White21_neu.jpg"	"sewage"	2	"forehead"	1	NA	211	538	1	0	3	"White"	"nose"
2	176	"C:\Hannah's FYP\White11_neu.jpg"	"beauty"	2	"forehead"	2	NA	212	446	2	0	3	"White"	"eyes"
2	177	"C:\Hannah's FYP\White9_neu.jpg"	"joy"	2	"forehead"	2	NA	212	557	2	0	3	"White"	"eyes"
2	178	"C:\Hannah's FYP\White15_neu.jpg"	"cockroach"	2	"forehead"	1	NA	211	632	1	0	3	"White"	"eyes"
2	179	"C:\Hannah's FYP\White9_neu.jpg"	"romance"	2	"forehead"	2	NA	212	559	2	0	3	"White"	"eyes"
2	180	"C:\Hannah's FYP\Black1_neu.jpg"	"joy"	1	"forehead"	2	NA	112	722	2	0	3	"Black"	"forehead"
2	181	"C:\Hannah's FYP\Black22_neu.jpg"	"joy"	1	"forehead"	2	NA	112	554	2	0	3	"Black"	"nose"
2	182	"C:\Hannah's FYP\Black1_neu.jpg"	"despair"	1	"forehead"	1	NA	111	677	1	0	3	"Black"	"forehead"
2	183	"C:\Hannah's FYP\White1_neu.jpg"	"romance"	2	"forehead"	2	NA	212	698	2	0	3	"White"	"forehead"
2	184	"C:\Hannah's FYP\Black13_neu.jpg"	"success"	1	"forehead"	2	NA	112	615	2	0	3	"Black"	"eyes"
2	185	"C:\Hannah's FYP\Black22_neu.jpg"	"poison"	1	"forehead"	1	NA	111	893	1	0	3	"Black"	"nose"
2	186	"C:\Hannah's FYP\Black14_neu.jpg"	"garbage"	1	"forehead"	1	NA	111	649	1	0	3	"Black"	"eyes"
2	187	"C:\Hannah's FYP\White14_neu.jpg"	"poison"	2	"forehead"	1	NA	211	668	1	0	3	"White"	"eyes"
2	188	"C:\Hannah's FYP\Black23_neu.jpg"	"smile"	1	"forehead"	2	NA	112	839	2	0	3	"Black"	"nose"
2	189	"C:\Hannah's FYP\Black5_neu.jpg"	"pest"	1	"forehead"	1	NA	111	573	1	0	3	"Black"	"forehead"
2	190	"C:\Hannah's FYP\Black18_neu.jpg"	"smile"	1	"forehead"	2	NA	112	519	2	0	3	"Black"	"nose"
2	191	"C:\Hannah's FYP\Black13_neu.jpg"	"vacation"	1	"forehead"	2	NA	112	643	2	0	3	"Black"	"eyes"
2	192	"C:\Hannah's FYP\White19_neu.jpg"	"garbage"	2	"forehead"	1	NA	211	792	1	0	3	"White"	"nose"
3	1	"C:\Hannah's FYP\White26_smi.jpg"	""	2	"forehead"	NA	2	212	5122	2	0	3	"White"	"forehead"
3	2	"C:\Hannah's FYP\Black48_smi.jpg"	""	1	"nose"	NA	2	132	1865	2	0	3	"Black"	"forehead"
3	3	"C:\Hannah's FYP\White7_smi.jpg"	""	2	"forehead"	NA	1	211	756	2	1	3	"White"	"forehead"
3	4	"C:\Hannah's FYP\Black5_smi.jpg"	""	1	"forehead"	NA	1	111	1270	2	1	3	"Black"	"forehead"
3	5	"C:\Hannah's FYP\Black4_smi.jpg"	""	1	"forehead"	NA	1	111	505	2	1	3	"Black"	"forehead"
3	6	"C:\Hannah's FYP\Black40_smi.jpg"	""	1	"eyes"	NA	2	122	990	1	1	3	"Black"	"forehead"
3	7	"C:\Hannah's FYP\Black20_smi.jpg"	""	1	"nose"	NA	1	131	518	2	1	3	"Black"	"nose"
3	8	"C:\Hannah's FYP\White31_smi.jpg"	""	2	"forehead"	NA	2	212	482	1	1	3	"White"	"forehead"
3	9	"C:\Hannah's FYP\Black45_smi.jpg"	""	1	"nose"	NA	2	132	1288	1	1	3	"Black"	"forehead"
3	10	"C:\Hannah's FYP\White8_smi.jpg"	""	2	"forehead"	NA	1	211	843	2	1	3	"White"	"forehead"
3	11	"C:\Hannah's FYP\Black11_smi.jpg"	""	1	"eyes"	NA	1	121	745	2	1	3	"Black"	"eyes"
3	12	"C:\Hannah's FYP\White45_smi.jpg"	""	2	"nose"	NA	2	232	411	1	1	3	"White"	"forehead"
3	13	"C:\Hannah's FYP\Black7_smi.jpg"	""	1	"forehead"	NA	1	111	636	2	1	3	"Black"	"forehead"
3	14	"C:\Hannah's FYP\Black29_smi.jpg"	""	1	"forehead"	NA	2	112	707	2	0	3	"Black"	"eyes"
3	15	"C:\Hannah's FYP\Black14_smi.jpg"	""	1	"eyes"	NA	1	121	367	2	1	3	"Black"	"eyes"
3	16	"C:\Hannah's FYP\Black1_smi.jpg"	""	1	"forehead"	NA	1	111	1306	1	0	3	"Black"	"forehead"
3	17	"C:\Hannah's FYP\Black8_smi.jpg"	""	1	"forehead"	NA	1	111	740	2	1	3	"Black"	"forehead"
3	18	"C:\Hannah's FYP\White34_smi.jpg"	""	2	"eyes"	NA	2	222	694	2	0	3	"White"	"forehead"
3	19	"C:\Hannah's FYP\White11_smi.jpg"	""	2	"eyes"	NA	1	221	411	1	0	3	"White"	"eyes"
3	20	"C:\Hannah's FYP\Black36_smi.jpg"	""	1	"eyes"	NA	2	122	5212	2	0	3	"Black"	"forehead"
3	21	"C:\Hannah's FYP\Black24_smi.jpg"	""	1	"nose"	NA	1	131	151	2	1	3	"Black"	"nose"
3	22	"C:\Hannah's FYP\Black42_smi.jpg"	""	1	"nose"	NA	2	132	379	2	0	3	"Black"	"forehead"
3	23	"C:\Hannah's FYP\Black37_smi.jpg"	""	1	"eyes"	NA	2	122	541	2	0	3	"Black"	"forehead"
3	24	"C:\Hannah's FYP\Black17_smi.jpg"	""	1	"nose"	NA	1	131	1361	2	1	3	"Black"	"nose"
3	25	"C:\Hannah's FYP\White33_smi.jpg"	""	2	"eyes"	NA	2	222	2417	2	0	3	"White"	"forehead"
3	26	"C:\Hannah's FYP\White18_smi.jpg"	""	2	"nose"	NA	1	231	44	1	0	3	"White"	"nose"
3	27	"C:\Hannah's FYP\White4_smi.jpg"	""	2	"forehead"	NA	1	211	692	1	0	3	"White"	"forehead"
3	28	"C:\Hannah's FYP\Black38_smi.jpg"	""	1	"eyes"	NA	2	122	617	1	1	3	"Black"	"forehead"
3	29	"C:\Hannah's FYP\White1_smi.jpg"	""	2	"forehead"	NA	1	211	2841	2	1	3	"White"	"forehead"
3	30	"C:\Hannah's FYP\White30_smi.jpg"	""	2	"forehead"	NA	2	212	1233	1	1	3	"White"	"forehead"
3	31	"C:\Hannah's FYP\Black13_smi.jpg"	""	1	"eyes"	NA	1	121	967	2	1	3	"Black"	"eyes"
3	32	"C:\Hannah's FYP\Black25_smi.jpg"	""	1	"forehead"	NA	2	112	2136	2	0	3	"Black"	"forehead"
3	33	"C:\Hannah's FYP\White5_smi.jpg"	""	2	"forehead"	NA	1	211	967	2	1	3	"White"	"forehead"
3	34	"C:\Hannah's FYP\Black27_smi.jpg"	""	1	"forehead"	NA	2	112	1440	2	0	3	"Black"	"forehead"
3	35	"C:\Hannah's FYP\White35_smi.jpg"	""	2	"eyes"	NA	2	222	917	1	1	3	"White"	"forehead"
3	36	"C:\Hannah's FYP\White43_smi.jpg"	""	2	"nose"	NA	2	232	6256	2	0	3	"White"	"forehead"
3	37	"C:\Hannah's FYP\Black39_smi.jpg"	""	1	"eyes"	NA	2	122	918	1	1	3	"Black"	"eyes"
3	38	"C:\Hannah's FYP\Black10_smi.jpg"	""	1	"eyes"	NA	1	121	545	2	1	3	"Black"	"eyes"
3	39	"C:\Hannah's FYP\Black35_smi.jpg"	""	1	"eyes"	NA	2	122	508	2	0	3	"Black"	"forehead"
3	40	"C:\Hannah's FYP\Black43_smi.jpg"	""	1	"nose"	NA	2	132	1137	2	0	3	"Black"	"forehead"
3	41	"C:\Hannah's FYP\White27_smi.jpg"	""	2	"forehead"	NA	2	212	698	2	0	3	"White"	"forehead"
3	42	"C:\Hannah's FYP\White20_smi.jpg"	""	2	"nose"	NA	1	231	943	1	0	3	"White"	"nose"
3	43	"C:\Hannah's FYP\Black9_smi.jpg"	""	1	"eyes"	NA	1	121	769	2	1	3	"Black"	"eyes"
3	44	"C:\Hannah's FYP\White28_smi.jpg"	""	2	"forehead"	NA	2	212	659	2	0	3	"White"	"forehead"
3	45	"C:\Hannah's FYP\Black30_smi.jpg"	""	1	"forehead"	NA	2	112	553	2	0	3	"Black"	"forehead"
3	46	"C:\Hannah's FYP\Black23_smi.jpg"	""	1	"nose"	NA	1	131	556	2	1	3	"Black"	"nose"
3	47	"C:\Hannah's FYP\White23_smi.jpg"	""	2	"nose"	NA	1	231	150	2	1	3	"White"	"nose"
3	48	"C:\Hannah's FYP\White37_smi.jpg"	""	2	"eyes"	NA	2	222	1178	1	1	3	"White"	"forehead"
3	49	"C:\Hannah's FYP\Black44_smi.jpg"	""	1	"nose"	NA	2	132	1442	1	1	3	"Black"	"forehead"
3	50	"C:\Hannah's FYP\Black46_smi.jpg"	""	1	"nose"	NA	2	132	1007	1	1	3	"Black"	"forehead"
3	51	"C:\Hannah's FYP\White48_smi.jpg"	""	2	"nose"	NA	2	232	1342	2	0	3	"White"	"forehead"
3	52	"C:\Hannah's FYP\White25_smi.jpg"	""	2	"forehead"	NA	2	212	198	1	1	3	"White"	"forehead"
3	53	"C:\Hannah's FYP\White32_smi.jpg"	""	2	"forehead"	NA	2	212	377	2	0	3	"White"	"forehead"
3	54	"C:\Hannah's FYP\White41_smi.jpg"	""	2	"nose"	NA	2	232	27	1	1	3	"White"	"forehead"
3	55	"C:\Hannah's FYP\Black22_smi.jpg"	""	1	"nose"	NA	1	131	5	2	1	3	"Black"	"nose"
3	56	"C:\Hannah's FYP\White16_smi.jpg"	""	2	"eyes"	NA	1	221	279	2	1	3	"White"	"eyes"
3	57	"C:\Hannah's FYP\Black34_smi.jpg"	""	1	"eyes"	NA	2	122	405	2	0	3	"Black"	"forehead"
3	58	"C:\Hannah's FYP\Black18_smi.jpg"	""	1	"nose"	NA	1	131	1518	2	1	3	"Black"	"nose"
3	59	"C:\Hannah's FYP\Black26_smi.jpg"	""	1	"forehead"	NA	2	112	128	1	1	3	"Black"	"forehead"
3	60	"C:\Hannah's FYP\White46_smi.jpg"	""	2	"nose"	NA	2	232	21	2	0	3	"White"	"forehead"
3	61	"C:\Hannah's FYP\White39_smi.jpg"	""	2	"eyes"	NA	2	222	2950	2	0	3	"White"	"eyes"
3	62	"C:\Hannah's FYP\Black2_smi.jpg"	""	1	"forehead"	NA	1	111	1026	1	0	3	"Black"	"forehead"
3	63	"C:\Hannah's FYP\White44_smi.jpg"	""	2	"nose"	NA	2	232	673	2	0	3	"White"	"forehead"
3	64	"C:\Hannah's FYP\Black6_smi.jpg"	""	1	"forehead"	NA	1	111	742	2	1	3	"Black"	"forehead"
3	65	"C:\Hannah's FYP\Black32_smi.jpg"	""	1	"forehead"	NA	2	112	1009	1	1	3	"Black"	"forehead"
3	66	"C:\Hannah's FYP\White15_smi.jpg"	""	2	"eyes"	NA	1	221	4240	2	1	3	"White"	"eyes"
3	67	"C:\Hannah's FYP\Black16_smi.jpg"	""	1	"eyes"	NA	1	121	701	1	0	3	"Black"	"eyes"
3	68	"C:\Hannah's FYP\White36_smi.jpg"	""	2	"eyes"	NA	2	222	616	1	1	3	"White"	"forehead"
3	69	"C:\Hannah's FYP\White24_smi.jpg"	""	2	"nose"	NA	1	231	1449	2	1	3	"White"	"nose"
3	70	"C:\Hannah's FYP\Black33_smi.jpg"	""	1	"eyes"	NA	2	122	845	2	0	3	"Black"	"forehead"
3	71	"C:\Hannah's FYP\White3_smi.jpg"	""	2	"forehead"	NA	1	211	452	2	1	3	"White"	"forehead"
3	72	"C:\Hannah's FYP\White47_smi.jpg"	""	2	"nose"	NA	2	232	770	1	1	3	"White"	"forehead"
3	73	"C:\Hannah's FYP\White9_smi.jpg"	""	2	"eyes"	NA	1	221	788	1	0	3	"White"	"eyes"
3	74	"C:\Hannah's FYP\Black31_smi.jpg"	""	1	"forehead"	NA	2	112	796	2	0	3	"Black"	"forehead"
3	75	"C:\Hannah's FYP\White38_smi.jpg"	""	2	"eyes"	NA	2	222	165	1	1	3	"White"	"forehead"
3	76	"C:\Hannah's FYP\White19_smi.jpg"	""	2	"nose"	NA	1	231	304	2	1	3	"White"	"nose"
3	77	"C:\Hannah's FYP\Black19_smi.jpg"	""	1	"nose"	NA	1	131	285	2	1	3	"Black"	"nose"
3	78	"C:\Hannah's FYP\Black12_smi.jpg"	""	1	"eyes"	NA	1	121	59	1	0	3	"Black"	"eyes"
3	79	"C:\Hannah's FYP\White2_smi.jpg"	""	2	"forehead"	NA	1	211	427	2	1	3	"White"	"forehead"
3	80	"C:\Hannah's FYP\Black47_smi.jpg"	""	1	"nose"	NA	2	132	588	1	1	3	"Black"	"forehead"
3	81	"C:\Hannah's FYP\White17_smi.jpg"	""	2	"nose"	NA	1	231	341	2	1	3	"White"	"nose"
3	82	"C:\Hannah's FYP\White42_smi.jpg"	""	2	"nose"	NA	2	232	640	2	0	3	"White"	"forehead"
3	83	"C:\Hannah's FYP\White14_smi.jpg"	""	2	"eyes"	NA	1	221	367	1	0	3	"White"	"eyes"
3	84	"C:\Hannah's FYP\Black21_smi.jpg"	""	1	"nose"	NA	1	131	546	1	0	3	"Black"	"nose"
3	85	"C:\Hannah's FYP\Black28_smi.jpg"	""	1	"forehead"	NA	2	112	765	1	1	3	"Black"	"forehead"
3	86	"C:\Hannah's FYP\White22_smi.jpg"	""	2	"nose"	NA	1	231	807	2	1	3	"White"	"nose"
3	87	"C:\Hannah's FYP\White40_smi.jpg"	""	2	"eyes"	NA	2	222	1494	2	0	3	"White"	"forehead"
3	88	"C:\Hannah's FYP\White12_smi.jpg"	""	2	"eyes"	NA	1	221	833	2	1	3	"White"	"eyes"
3	89	"C:\Hannah's FYP\White21_smi.jpg"	""	2	"nose"	NA	1	231	776	2	1	3	"White"	"nose"
3	90	"C:\Hannah's FYP\White29_smi.jpg"	""	2	"forehead"	NA	2	212	497	2	0	3	"White"	"eyes"
3	91	"C:\Hannah's FYP\Black41_smi.jpg"	""	1	"nose"	NA	2	132	574	2	0	3	"Black"	"forehead"
3	92	"C:\Hannah's FYP\Black3_smi.jpg"	""	1	"forehead"	NA	1	111	488	2	1	3	"Black"	"forehead"
3	93	"C:\Hannah's FYP\White13_smi.jpg"	""	2	"eyes"	NA	1	221	453	2	1	3	"White"	"eyes"
3	94	"C:\Hannah's FYP\White10_smi.jpg"	""	2	"eyes"	NA	1	221	380	2	1	3	"White"	"eyes"
3	95	"C:\Hannah's FYP\Black15_smi.jpg"	""	1	"eyes"	NA	1	121	647	2	1	3	"Black"	"eyes"
3	96	"C:\Hannah's FYP\White6_smi.jpg"	""	2	"forehead"	NA	1	211	37	1	0	3	"White"	"forehead"
1	1	""	"sewage"	NA	""	1	NA	NA	1099	1	NA	4	NA	NA
1	2	""	"vomit"	NA	""	1	NA	NA	838	1	NA	4	NA	NA
1	3	""	"cockroach"	NA	""	1	NA	NA	827	1	NA	4	NA	NA
1	4	""	"success"	NA	""	2	NA	NA	849	2	NA	4	NA	NA
1	5	""	"despair"	NA	""	1	NA	NA	942	1	NA	4	NA	NA
1	6	""	"love"	NA	""	2	NA	NA	927	2	NA	4	NA	NA
1	7	""	"romance"	NA	""	2	NA	NA	920	2	NA	4	NA	NA
1	8	""	"pest"	NA	""	1	NA	NA	858	1	NA	4	NA	NA
1	9	""	"joy"	NA	""	2	NA	NA	879	2	NA	4	NA	NA
1	10	""	"romance"	NA	""	2	NA	NA	1058	2	NA	4	NA	NA
1	11	""	"success"	NA	""	2	NA	NA	854	2	NA	4	NA	NA
1	12	""	"disgust"	NA	""	1	NA	NA	987	1	NA	4	NA	NA
1	13	""	"smile"	NA	""	2	NA	NA	769	2	NA	4	NA	NA
1	14	""	"paradise"	NA	""	2	NA	NA	874	2	NA	4	NA	NA
1	15	""	"vacation"	NA	""	2	NA	NA	1085	2	NA	4	NA	NA
1	16	""	"joy"	NA	""	2	NA	NA	960	2	NA	4	NA	NA
1	17	""	"cockroach"	NA	""	1	NA	NA	736	1	NA	4	NA	NA
1	18	""	"beauty"	NA	""	2	NA	NA	809	2	NA	4	NA	NA
1	19	""	"beauty"	NA	""	2	NA	NA	792	2	NA	4	NA	NA
1	20	""	"paradise"	NA	""	2	NA	NA	863	2	NA	4	NA	NA
1	21	""	"vacation"	NA	""	2	NA	NA	764	2	NA	4	NA	NA
1	22	""	"disgust"	NA	""	1	NA	NA	909	1	NA	4	NA	NA
1	23	""	"garbage"	NA	""	1	NA	NA	911	1	NA	4	NA	NA
1	24	""	"poison"	NA	""	1	NA	NA	761	1	NA	4	NA	NA
1	25	""	"pest"	NA	""	1	NA	NA	802	1	NA	4	NA	NA
1	26	""	"poison"	NA	""	1	NA	NA	593	1	NA	4	NA	NA
1	27	""	"garbage"	NA	""	1	NA	NA	753	1	NA	4	NA	NA
1	28	""	"vomit"	NA	""	1	NA	NA	729	1	NA	4	NA	NA
1	29	""	"sewage"	NA	""	1	NA	NA	756	1	NA	4	NA	NA
1	30	""	"despair"	NA	""	1	NA	NA	829	1	NA	4	NA	NA
1	31	""	"love"	NA	""	2	NA	NA	466	2	NA	4	NA	NA
1	32	""	"smile"	NA	""	2	NA	NA	703	2	NA	4	NA	NA
2	1	"C:\Hannah's FYP\White21_neu.jpg"	"beauty"	2	"forehead"	2	NA	212	3461	2	0	4	"White"	"nose"
2	2	"C:\Hannah's FYP\White18_neu.jpg"	"vacation"	2	"forehead"	2	NA	212	735	2	0	4	"White"	"nose"
2	3	"C:\Hannah's FYP\Black21_neu.jpg"	"pest"	1	"forehead"	1	NA	111	1158	1	0	4	"Black"	"nose"
2	4	"C:\Hannah's FYP\Black10_neu.jpg"	"romance"	1	"forehead"	2	NA	112	831	2	0	4	"Black"	"eyes"
2	5	"C:\Hannah's FYP\Black6_neu.jpg"	"romance"	1	"forehead"	2	NA	112	758	2	0	4	"Black"	"forehead"
2	6	"C:\Hannah's FYP\White22_neu.jpg"	"pest"	2	"forehead"	1	NA	211	847	1	0	4	"White"	"nose"
2	7	"C:\Hannah's FYP\White16_neu.jpg"	"sewage"	2	"forehead"	1	NA	211	924	1	0	4	"White"	"eyes"
2	8	"C:\Hannah's FYP\White3_neu.jpg"	"pest"	2	"forehead"	1	NA	211	535	1	0	4	"White"	"forehead"
2	9	"C:\Hannah's FYP\White22_neu.jpg"	"joy"	2	"forehead"	2	NA	212	538	2	0	4	"White"	"nose"
2	10	"C:\Hannah's FYP\White2_neu.jpg"	"disgust"	2	"forehead"	1	NA	211	869	1	0	4	"White"	"forehead"
2	11	"C:\Hannah's FYP\Black4_neu.jpg"	"disgust"	1	"forehead"	1	NA	111	1042	1	0	4	"Black"	"forehead"
2	12	"C:\Hannah's FYP\Black2_neu.jpg"	"beauty"	1	"forehead"	2	NA	112	664	2	0	4	"Black"	"forehead"
2	13	"C:\Hannah's FYP\Black12_neu.jpg"	"smile"	1	"forehead"	2	NA	112	566	2	0	4	"Black"	"eyes"
2	14	"C:\Hannah's FYP\Black10_neu.jpg"	"vacation"	1	"forehead"	2	NA	112	553	2	0	4	"Black"	"eyes"
2	15	"C:\Hannah's FYP\White15_neu.jpg"	"pest"	2	"forehead"	1	NA	211	595	1	0	4	"White"	"eyes"
2	16	"C:\Hannah's FYP\Black5_neu.jpg"	"love"	1	"forehead"	2	NA	112	588	2	0	4	"Black"	"forehead"
2	17	"C:\Hannah's FYP\White24_neu.jpg"	"vomit"	2	"forehead"	1	NA	211	661	1	0	4	"White"	"nose"
2	18	"C:\Hannah's FYP\Black2_neu.jpg"	"romance"	1	"forehead"	2	NA	112	491	2	0	4	"Black"	"forehead"
2	19	"C:\Hannah's FYP\Black15_neu.jpg"	"poison"	1	"forehead"	1	NA	111	641	1	0	4	"Black"	"eyes"
2	20	"C:\Hannah's FYP\Black20_neu.jpg"	"pest"	1	"forehead"	1	NA	111	827	1	0	4	"Black"	"nose"
2	21	"C:\Hannah's FYP\Black12_neu.jpg"	"paradise"	1	"forehead"	2	NA	112	754	2	0	4	"Black"	"eyes"
2	22	"C:\Hannah's FYP\Black12_neu.jpg"	"despair"	1	"forehead"	1	NA	111	748	1	0	4	"Black"	"eyes"
2	23	"C:\Hannah's FYP\White1_neu.jpg"	"paradise"	2	"forehead"	2	NA	212	2055	2	0	4	"White"	"forehead"
2	24	"C:\Hannah's FYP\White19_neu.jpg"	"garbage"	2	"forehead"	1	NA	211	653	1	0	4	"White"	"nose"
2	25	"C:\Hannah's FYP\Black21_neu.jpg"	"love"	1	"forehead"	2	NA	112	680	2	0	4	"Black"	"nose"
2	26	"C:\Hannah's FYP\Black16_neu.jpg"	"beauty"	1	"forehead"	2	NA	112	629	2	0	4	"Black"	"eyes"
2	27	"C:\Hannah's FYP\Black18_neu.jpg"	"despair"	1	"forehead"	1	NA	111	589	1	0	4	"Black"	"nose"
2	28	"C:\Hannah's FYP\White16_neu.jpg"	"joy"	2	"forehead"	2	NA	212	742	2	0	4	"White"	"eyes"
2	29	"C:\Hannah's FYP\White16_neu.jpg"	"success"	2	"forehead"	2	NA	212	496	2	0	4	"White"	"eyes"
2	30	"C:\Hannah's FYP\White24_neu.jpg"	"cockroach"	2	"forehead"	1	NA	211	718	1	0	4	"White"	"nose"
2	31	"C:\Hannah's FYP\White5_neu.jpg"	"success"	2	"forehead"	2	NA	212	817	2	0	4	"White"	"forehead"
2	32	"C:\Hannah's FYP\White9_neu.jpg"	"success"	2	"forehead"	2	NA	212	745	2	0	4	"White"	"eyes"
2	33	"C:\Hannah's FYP\Black23_neu.jpg"	"poison"	1	"forehead"	1	NA	111	832	1	0	4	"Black"	"nose"
2	34	"C:\Hannah's FYP\White18_neu.jpg"	"sewage"	2	"forehead"	1	NA	211	1163	1	0	4	"White"	"nose"
2	35	"C:\Hannah's FYP\White18_neu.jpg"	"joy"	2	"forehead"	2	NA	212	1112	2	0	4	"White"	"nose"
2	36	"C:\Hannah's FYP\Black20_neu.jpg"	"smile"	1	"forehead"	2	NA	112	879	2	0	4	"Black"	"nose"
2	37	"C:\Hannah's FYP\Black17_neu.jpg"	"joy"	1	"forehead"	2	NA	112	721	2	0	4	"Black"	"nose"
2	38	"C:\Hannah's FYP\Black21_neu.jpg"	"success"	1	"forehead"	2	NA	112	1034	2	0	4	"Black"	"nose"
2	39	"C:\Hannah's FYP\White1_neu.jpg"	"despair"	2	"forehead"	1	NA	211	600	1	0	4	"White"	"forehead"
2	40	"C:\Hannah's FYP\White12_neu.jpg"	"beauty"	2	"forehead"	2	NA	212	953	2	0	4	"White"	"eyes"
2	41	"C:\Hannah's FYP\Black14_neu.jpg"	"success"	1	"forehead"	2	NA	112	746	2	0	4	"Black"	"eyes"
2	42	"C:\Hannah's FYP\White17_neu.jpg"	"vomit"	2	"forehead"	1	NA	211	1020	1	0	4	"White"	"nose"
2	43	"C:\Hannah's FYP\Black4_neu.jpg"	"paradise"	1	"forehead"	2	NA	112	723	2	0	4	"Black"	"forehead"
2	44	"C:\Hannah's FYP\Black12_neu.jpg"	"vomit"	1	"forehead"	1	NA	111	1094	1	0	4	"Black"	"eyes"
2	45	"C:\Hannah's FYP\White2_neu.jpg"	"vacation"	2	"forehead"	2	NA	212	634	2	0	4	"White"	"forehead"
2	46	"C:\Hannah's FYP\Black24_neu.jpg"	"vomit"	1	"forehead"	1	NA	111	973	1	0	4	"Black"	"nose"
2	47	"C:\Hannah's FYP\Black9_neu.jpg"	"love"	1	"forehead"	2	NA	112	798	2	0	4	"Black"	"eyes"
2	48	"C:\Hannah's FYP\White9_neu.jpg"	"poison"	2	"forehead"	1	NA	211	766	1	0	4	"White"	"eyes"
2	49	"C:\Hannah's FYP\White20_neu.jpg"	"smile"	2	"forehead"	2	NA	212	692	2	0	4	"White"	"nose"
2	50	"C:\Hannah's FYP\Black23_neu.jpg"	"smile"	1	"forehead"	2	NA	112	877	2	0	4	"Black"	"nose"
2	51	"C:\Hannah's FYP\Black17_neu.jpg"	"vacation"	1	"forehead"	2	NA	112	776	2	0	4	"Black"	"nose"
2	52	"C:\Hannah's FYP\White16_neu.jpg"	"disgust"	2	"forehead"	1	NA	211	713	1	0	4	"White"	"eyes"
2	53	"C:\Hannah's FYP\Black17_neu.jpg"	"poison"	1	"forehead"	1	NA	111	811	1	0	4	"Black"	"nose"
2	54	"C:\Hannah's FYP\Black1_neu.jpg"	"pest"	1	"forehead"	1	NA	111	995	1	0	4	"Black"	"forehead"
2	55	"C:\Hannah's FYP\White5_neu.jpg"	"paradise"	2	"forehead"	2	NA	212	723	2	0	4	"White"	"forehead"
2	56	"C:\Hannah's FYP\Black2_neu.jpg"	"sewage"	1	"forehead"	1	NA	111	902	1	0	4	"Black"	"forehead"
2	57	"C:\Hannah's FYP\White13_neu.jpg"	"poison"	2	"forehead"	1	NA	211	969	1	0	4	"White"	"eyes"
2	58	"C:\Hannah's FYP\Black21_neu.jpg"	"cockroach"	1	"forehead"	1	NA	111	702	1	0	4	"Black"	"nose"
2	59	"C:\Hannah's FYP\White12_neu.jpg"	"despair"	2	"forehead"	1	NA	211	850	1	0	4	"White"	"eyes"
2	60	"C:\Hannah's FYP\Black8_neu.jpg"	"cockroach"	1	"forehead"	1	NA	111	1007	1	0	4	"Black"	"forehead"
2	61	"C:\Hannah's FYP\Black7_neu.jpg"	"vomit"	1	"forehead"	1	NA	111	859	1	0	4	"Black"	"forehead"
2	62	"C:\Hannah's FYP\Black5_neu.jpg"	"garbage"	1	"forehead"	1	NA	111	952	1	0	4	"Black"	"forehead"
2	63	"C:\Hannah's FYP\Black16_neu.jpg"	"garbage"	1	"forehead"	1	NA	111	1010	1	0	4	"Black"	"eyes"
2	64	"C:\Hannah's FYP\Black14_neu.jpg"	"cockroach"	1	"forehead"	1	NA	111	809	1	0	4	"Black"	"eyes"
2	65	"C:\Hannah's FYP\Black6_neu.jpg"	"despair"	1	"forehead"	1	NA	111	865	1	0	4	"Black"	"forehead"
2	66	"C:\Hannah's FYP\Black24_neu.jpg"	"paradise"	1	"forehead"	2	NA	112	843	2	0	4	"Black"	"nose"
2	67	"C:\Hannah's FYP\White13_neu.jpg"	"cockroach"	2	"forehead"	1	NA	211	778	1	0	4	"White"	"eyes"
2	68	"C:\Hannah's FYP\White4_neu.jpg"	"smile"	2	"forehead"	2	NA	212	619	2	0	4	"White"	"forehead"
2	69	"C:\Hannah's FYP\White11_neu.jpg"	"paradise"	2	"forehead"	2	NA	212	554	2	0	4	"White"	"eyes"
2	70	"C:\Hannah's FYP\White13_neu.jpg"	"paradise"	2	"forehead"	2	NA	212	709	2	0	4	"White"	"eyes"
2	71	"C:\Hannah's FYP\Black22_neu.jpg"	"vacation"	1	"forehead"	2	NA	112	830	2	0	4	"Black"	"nose"
2	72	"C:\Hannah's FYP\Black9_neu.jpg"	"poison"	1	"forehead"	1	NA	111	885	1	0	4	"Black"	"eyes"
2	73	"C:\Hannah's FYP\Black17_neu.jpg"	"disgust"	1	"forehead"	1	NA	111	823	1	0	4	"Black"	"nose"
2	74	"C:\Hannah's FYP\Black7_neu.jpg"	"joy"	1	"forehead"	2	NA	112	716	2	0	4	"Black"	"forehead"
2	75	"C:\Hannah's FYP\Black2_neu.jpg"	"vomit"	1	"forehead"	1	NA	111	608	1	0	4	"Black"	"forehead"
2	76	"C:\Hannah's FYP\Black1_neu.jpg"	"vacation"	1	"forehead"	2	NA	112	720	2	0	4	"Black"	"forehead"
2	77	"C:\Hannah's FYP\White11_neu.jpg"	"sewage"	2	"forehead"	1	NA	211	619	1	0	4	"White"	"eyes"
2	78	"C:\Hannah's FYP\Black23_neu.jpg"	"beauty"	1	"forehead"	2	NA	112	528	2	0	4	"Black"	"nose"
2	79	"C:\Hannah's FYP\Black5_neu.jpg"	"sewage"	1	"forehead"	1	NA	111	716	1	0	4	"Black"	"forehead"
2	80	"C:\Hannah's FYP\White8_neu.jpg"	"beauty"	2	"forehead"	2	NA	212	520	2	0	4	"White"	"forehead"
2	81	"C:\Hannah's FYP\Black10_neu.jpg"	"disgust"	1	"forehead"	1	NA	111	844	1	0	4	"Black"	"eyes"
2	82	"C:\Hannah's FYP\Black19_neu.jpg"	"vomit"	1	"forehead"	1	NA	111	1330	1	0	4	"Black"	"nose"
2	83	"C:\Hannah's FYP\White20_neu.jpg"	"disgust"	2	"forehead"	1	NA	211	632	1	0	4	"White"	"nose"
2	84	"C:\Hannah's FYP\White13_neu.jpg"	"vacation"	2	"forehead"	2	NA	212	584	2	0	4	"White"	"eyes"
2	85	"C:\Hannah's FYP\White5_neu.jpg"	"disgust"	2	"forehead"	1	NA	211	1185	1	0	4	"White"	"forehead"
2	86	"C:\Hannah's FYP\Black7_neu.jpg"	"disgust"	1	"forehead"	1	NA	111	590	1	0	4	"Black"	"forehead"
2	87	"C:\Hannah's FYP\White5_neu.jpg"	"pest"	2	"forehead"	1	NA	211	687	1	0	4	"White"	"forehead"
2	88	"C:\Hannah's FYP\Black24_neu.jpg"	"despair"	1	"forehead"	1	NA	111	1001	1	0	4	"Black"	"nose"
2	89	"C:\Hannah's FYP\White19_neu.jpg"	"romance"	2	"forehead"	2	NA	212	718	2	0	4	"White"	"nose"
2	90	"C:\Hannah's FYP\Black8_neu.jpg"	"success"	1	"forehead"	2	NA	112	935	2	0	4	"Black"	"forehead"
2	91	"C:\Hannah's FYP\White6_neu.jpg"	"joy"	2	"forehead"	2	NA	212	825	2	0	4	"White"	"forehead"
2	92	"C:\Hannah's FYP\White18_neu.jpg"	"poison"	2	"forehead"	1	NA	211	1132	1	0	4	"White"	"nose"
2	93	"C:\Hannah's FYP\Black14_neu.jpg"	"disgust"	1	"forehead"	1	NA	111	918	1	0	4	"Black"	"eyes"
2	94	"C:\Hannah's FYP\White14_neu.jpg"	"beauty"	2	"forehead"	2	NA	212	838	2	0	4	"White"	"eyes"
2	95	"C:\Hannah's FYP\White8_neu.jpg"	"garbage"	2	"forehead"	1	NA	211	1068	1	0	4	"White"	"forehead"
2	96	"C:\Hannah's FYP\White7_neu.jpg"	"vacation"	2	"forehead"	2	NA	212	665	2	0	4	"White"	"forehead"
2	97	"C:\Hannah's FYP\White12_neu.jpg"	"disgust"	2	"forehead"	1	NA	211	1431	1	0	4	"White"	"eyes"
2	98	"C:\Hannah's FYP\White8_neu.jpg"	"despair"	2	"forehead"	1	NA	211	764	1	0	4	"White"	"forehead"
2	99	"C:\Hannah's FYP\White19_neu.jpg"	"cockroach"	2	"forehead"	1	NA	211	739	1	0	4	"White"	"nose"
2	100	"C:\Hannah's FYP\Black3_neu.jpg"	"joy"	1	"forehead"	2	NA	112	612	2	0	4	"Black"	"forehead"
2	101	"C:\Hannah's FYP\Black1_neu.jpg"	"love"	1	"forehead"	2	NA	112	677	2	0	4	"Black"	"forehead"
2	102	"C:\Hannah's FYP\White7_neu.jpg"	"sewage"	2	"forehead"	1	NA	211	682	1	0	4	"White"	"forehead"
2	103	"C:\Hannah's FYP\White15_neu.jpg"	"smile"	2	"forehead"	2	NA	212	528	2	0	4	"White"	"eyes"
2	104	"C:\Hannah's FYP\White17_neu.jpg"	"love"	2	"forehead"	2	NA	212	580	2	0	4	"White"	"nose"
2	105	"C:\Hannah's FYP\Black3_neu.jpg"	"poison"	1	"forehead"	1	NA	111	852	1	0	4	"Black"	"forehead"
2	106	"C:\Hannah's FYP\White14_neu.jpg"	"love"	2	"forehead"	2	NA	212	622	2	0	4	"White"	"eyes"
2	107	"C:\Hannah's FYP\White21_neu.jpg"	"sewage"	2	"forehead"	1	NA	211	651	1	0	4	"White"	"nose"
2	108	"C:\Hannah's FYP\Black3_neu.jpg"	"smile"	1	"forehead"	2	NA	112	639	2	0	4	"Black"	"forehead"
2	109	"C:\Hannah's FYP\White4_neu.jpg"	"garbage"	2	"forehead"	1	NA	211	622	1	0	4	"White"	"forehead"
2	110	"C:\Hannah's FYP\White6_neu.jpg"	"cockroach"	2	"forehead"	1	NA	211	830	1	0	4	"White"	"forehead"
2	111	"C:\Hannah's FYP\Black13_neu.jpg"	"vomit"	1	"forehead"	1	NA	111	749	1	0	4	"Black"	"eyes"
2	112	"C:\Hannah's FYP\Black11_neu.jpg"	"success"	1	"forehead"	2	NA	112	711	2	0	4	"Black"	"eyes"
2	113	"C:\Hannah's FYP\Black16_neu.jpg"	"love"	1	"forehead"	2	NA	112	643	2	0	4	"Black"	"eyes"
2	114	"C:\Hannah's FYP\Black24_neu.jpg"	"romance"	1	"forehead"	2	NA	112	607	2	0	4	"Black"	"nose"
2	115	"C:\Hannah's FYP\White17_neu.jpg"	"paradise"	2	"forehead"	2	NA	212	544	2	0	4	"White"	"nose"
2	116	"C:\Hannah's FYP\White20_neu.jpg"	"beauty"	2	"forehead"	2	NA	212	463	2	0	4	"White"	"nose"
2	117	"C:\Hannah's FYP\Black15_neu.jpg"	"joy"	1	"forehead"	2	NA	112	414	2	0	4	"Black"	"eyes"
2	118	"C:\Hannah's FYP\Black11_neu.jpg"	"beauty"	1	"forehead"	2	NA	112	703	2	0	4	"Black"	"eyes"
2	119	"C:\Hannah's FYP\White9_neu.jpg"	"romance"	2	"forehead"	2	NA	212	603	2	0	4	"White"	"eyes"
2	120	"C:\Hannah's FYP\Black9_neu.jpg"	"sewage"	1	"forehead"	1	NA	111	859	1	0	4	"Black"	"eyes"
2	121	"C:\Hannah's FYP\White7_neu.jpg"	"romance"	2	"forehead"	2	NA	212	489	2	0	4	"White"	"forehead"
2	122	"C:\Hannah's FYP\Black20_neu.jpg"	"romance"	1	"forehead"	2	NA	112	650	2	0	4	"Black"	"nose"
2	123	"C:\Hannah's FYP\White10_neu.jpg"	"joy"	2	"forehead"	2	NA	212	585	2	0	4	"White"	"eyes"
2	124	"C:\Hannah's FYP\Black9_neu.jpg"	"joy"	1	"forehead"	2	NA	112	658	2	0	4	"Black"	"eyes"
2	125	"C:\Hannah's FYP\White6_neu.jpg"	"love"	2	"forehead"	2	NA	212	680	2	0	4	"White"	"forehead"
2	126	"C:\Hannah's FYP\Black13_neu.jpg"	"sewage"	1	"forehead"	1	NA	111	614	1	0	4	"Black"	"eyes"
2	127	"C:\Hannah's FYP\White3_neu.jpg"	"success"	2	"forehead"	2	NA	212	710	2	0	4	"White"	"forehead"
2	128	"C:\Hannah's FYP\White14_neu.jpg"	"despair"	2	"forehead"	1	NA	211	710	1	0	4	"White"	"eyes"
2	129	"C:\Hannah's FYP\Black13_neu.jpg"	"smile"	1	"forehead"	2	NA	112	650	2	0	4	"Black"	"eyes"
