Block	Trial	FaceFilename	WordFilename	Race	Fix	WordValence	Familiar	Condition	RT	Key	Error1	1		despair			1			961	1	1	2		smile			2			506	2	1	3		love			2			485	2	1	4		paradise			2			665	2	1	5		pest			1			607	1	1	6		beauty			2			470	2	1	7		garbage			1			515	1	1	8		paradise			2			446	2	1	9		disgust			1			405	1	1	10		poison			1			549	1	1	11		garbage			1			495	1	1	12		poison			1			403	1	1	13		vacation			2			467	2	1	14		success			2			384	2	1	15		joy			2			392	2	1	16		disgust			1			417	1	1	17		cockroach			1			504	1	1	18		sewage			1			412	1	1	19		romance			2			483	1	1	20		smile			2			680	2	1	21		cockroach			1			740	1	1	22		love			2			486	2	1	23		pest			1			530	1	1	24		despair			1			933	1	1	25		vomit			1			654	1	1	26		vomit			1			379	1	1	27		beauty			2			477	2	1	28		romance			2			434	2	1	29		success			2			608	2	1	30		sewage			1			383	2	1	31		vacation			2			1112	2	1	32		joy			2			634	2	2	1	C:\Hannah's FYP\White14_neu.jpg	cockroach	2	forehead	1		211	666	1	02	2	C:\Hannah's FYP\White21_neu.jpg	cockroach	2	forehead	1		211	636	1	02	3	C:\Hannah's FYP\Black6_neu.jpg	joy	1	forehead	2		112	611	2	02	4	C:\Hannah's FYP\White8_neu.jpg	joy	2	forehead	2		212	595	2	02	5	C:\Hannah's FYP\White17_neu.jpg	vacation	2	forehead	2		212	604	2	02	6	C:\Hannah's FYP\Black6_neu.jpg	sewage	1	forehead	1		111	573	1	02	7	C:\Hannah's FYP\White12_neu.jpg	success	2	forehead	2		212	543	2	02	8	C:\Hannah's FYP\White11_neu.jpg	romance	2	forehead	2		212	666	2	02	9	C:\Hannah's FYP\White23_neu.jpg	pest	2	forehead	1		211	556	1	02	10	C:\Hannah's FYP\Black17_neu.jpg	smile	1	forehead	2		112	548	2	02	11	C:\Hannah's FYP\Black15_neu.jpg	vomit	1	forehead	1		111	735	1	02	12	C:\Hannah's FYP\White6_neu.jpg	sewage	2	forehead	1		211	795	1	02	13	C:\Hannah's FYP\White15_neu.jpg	despair	2	forehead	1		211	603	1	02	14	C:\Hannah's FYP\White10_neu.jpg	joy	2	forehead	2		212	459	2	02	15	C:\Hannah's FYP\White16_neu.jpg	success	2	forehead	2		212	650	2	02	16	C:\Hannah's FYP\Black9_neu.jpg	love	1	forehead	2		112	705	2	02	17	C:\Hannah's FYP\Black13_neu.jpg	poison	1	forehead	1		111	533	1	02	18	C:\Hannah's FYP\Black20_neu.jpg	disgust	1	forehead	1		111	517	1	02	19	C:\Hannah's FYP\White1_neu.jpg	despair	2	forehead	1		211	568	1	02	20	C:\Hannah's FYP\Black24_neu.jpg	paradise	1	forehead	2		112	655	2	02	21	C:\Hannah's FYP\Black2_neu.jpg	despair	1	forehead	1		111	845	1	02	22	C:\Hannah's FYP\Black13_neu.jpg	vacation	1	forehead	2		112	612	2	02	23	C:\Hannah's FYP\Black12_neu.jpg	cockroach	1	forehead	1		111	572	1	02	24	C:\Hannah's FYP\White12_neu.jpg	vacation	2	forehead	2		212	614	2	02	25	C:\Hannah's FYP\Black7_neu.jpg	despair	1	forehead	1		111	868	1	02	26	C:\Hannah's FYP\Black18_neu.jpg	garbage	1	forehead	1		111	473	1	02	27	C:\Hannah's FYP\Black3_neu.jpg	garbage	1	forehead	1		111	557	1	02	28	C:\Hannah's FYP\Black16_neu.jpg	despair	1	forehead	1		111	432	1	02	29	C:\Hannah's FYP\White9_neu.jpg	cockroach	2	forehead	1		211	416	1	02	30	C:\Hannah's FYP\White17_neu.jpg	vomit	2	forehead	1		211	569	1	02	31	C:\Hannah's FYP\White23_neu.jpg	smile	2	forehead	2		212	703	2	02	32	C:\Hannah's FYP\Black22_neu.jpg	joy	1	forehead	2		112	664	2	02	33	C:\Hannah's FYP\Black11_neu.jpg	joy	1	forehead	2		112	454	2	02	34	C:\Hannah's FYP\Black9_neu.jpg	disgust	1	forehead	1		111	589	1	02	35	C:\Hannah's FYP\Black8_neu.jpg	vomit	1	forehead	1		111	596	1	02	36	C:\Hannah's FYP\White13_neu.jpg	smile	2	forehead	2		212	821	2	02	37	C:\Hannah's FYP\Black19_neu.jpg	poison	1	forehead	1		111	540	1	02	38	C:\Hannah's FYP\White1_neu.jpg	joy	2	forehead	2		212	815	2	02	39	C:\Hannah's FYP\Black22_neu.jpg	disgust	1	forehead	1		111	396	1	02	40	C:\Hannah's FYP\White3_neu.jpg	cockroach	2	forehead	1		211	621	1	02	41	C:\Hannah's FYP\Black17_neu.jpg	sewage	1	forehead	1		111	499	1	02	42	C:\Hannah's FYP\White20_neu.jpg	pest	2	forehead	1		211	477	1	02	43	C:\Hannah's FYP\White7_neu.jpg	disgust	2	forehead	1		211	579	1	02	44	C:\Hannah's FYP\White7_neu.jpg	garbage	2	forehead	1		211	492	1	02	45	C:\Hannah's FYP\Black21_neu.jpg	despair	1	forehead	1		111	422	1	02	46	C:\Hannah's FYP\Black20_neu.jpg	beauty	1	forehead	2		112	522	2	02	47	C:\Hannah's FYP\White17_neu.jpg	poison	2	forehead	1		211	494	1	02	48	C:\Hannah's FYP\Black15_neu.jpg	joy	1	forehead	2		112	1027	2	02	49	C:\Hannah's FYP\Black19_neu.jpg	success	1	forehead	2		112	914	2	02	50	C:\Hannah's FYP\Black11_neu.jpg	garbage	1	forehead	1		111	677	1	02	51	C:\Hannah's FYP\White9_neu.jpg	disgust	2	forehead	1		211	707	1	02	52	C:\Hannah's FYP\White21_neu.jpg	beauty	2	forehead	2		212	707	2	02	53	C:\Hannah's FYP\White15_neu.jpg	sewage	2	forehead	1		211	639	1	02	54	C:\Hannah's FYP\Black14_neu.jpg	cockroach	1	forehead	1		111	1366	1	02	55	C:\Hannah's FYP\Black6_neu.jpg	romance	1	forehead	2		112	518	2	02	56	C:\Hannah's FYP\Black22_neu.jpg	beauty	1	forehead	2		112	367	1	12	57	C:\Hannah's FYP\White13_neu.jpg	vomit	2	forehead	1		211	625	1	02	58	C:\Hannah's FYP\Black9_neu.jpg	paradise	1	forehead	2		112	465	2	02	59	C:\Hannah's FYP\Black11_neu.jpg	vomit	1	forehead	1		111	512	2	12	60	C:\Hannah's FYP\White23_neu.jpg	vacation	2	forehead	2		212	784	2	02	61	C:\Hannah's FYP\Black5_neu.jpg	vacation	1	forehead	2		112	585	2	02	62	C:\Hannah's FYP\White9_neu.jpg	love	2	forehead	2		212	746	2	02	63	C:\Hannah's FYP\White20_neu.jpg	sewage	2	forehead	1		211	529	1	02	64	C:\Hannah's FYP\Black20_neu.jpg	despair	1	forehead	1		111	496	1	02	65	C:\Hannah's FYP\White8_neu.jpg	pest	2	forehead	1		211	638	1	02	66	C:\Hannah's FYP\White3_neu.jpg	disgust	2	forehead	1		211	653	1	02	67	C:\Hannah's FYP\Black1_neu.jpg	romance	1	forehead	2		112	531	2	02	68	C:\Hannah's FYP\White14_neu.jpg	disgust	2	forehead	1		211	451	1	02	69	C:\Hannah's FYP\White24_neu.jpg	disgust	2	forehead	1		211	506	1	02	70	C:\Hannah's FYP\Black3_neu.jpg	vomit	1	forehead	1		111	733	1	02	71	C:\Hannah's FYP\Black10_neu.jpg	despair	1	forehead	1		111	552	1	02	72	C:\Hannah's FYP\Black24_neu.jpg	love	1	forehead	2		112	824	2	02	73	C:\Hannah's FYP\White7_neu.jpg	paradise	2	forehead	2		212	887	2	02	74	C:\Hannah's FYP\White14_neu.jpg	romance	2	forehead	2		212	495	2	02	75	C:\Hannah's FYP\Black7_neu.jpg	beauty	1	forehead	2		112	1011	2	02	76	C:\Hannah's FYP\White5_neu.jpg	love	2	forehead	2		212	658	2	02	77	C:\Hannah's FYP\White1_neu.jpg	beauty	2	forehead	2		212	464	2	02	78	C:\Hannah's FYP\White15_neu.jpg	vacation	2	forehead	2		212	487	2	02	79	C:\Hannah's FYP\White22_neu.jpg	poison	2	forehead	1		211	548	1	02	80	C:\Hannah's FYP\White10_neu.jpg	paradise	2	forehead	2		212	479	2	02	81	C:\Hannah's FYP\White3_neu.jpg	paradise	2	forehead	2		212	501	2	02	82	C:\Hannah's FYP\Black24_neu.jpg	sewage	1	forehead	1		111	439	1	02	83	C:\Hannah's FYP\Black23_neu.jpg	garbage	1	forehead	1		111	556	1	02	84	C:\Hannah's FYP\Black11_neu.jpg	beauty	1	forehead	2		112	462	2	02	85	C:\Hannah's FYP\White5_neu.jpg	beauty	2	forehead	2		212	565	2	02	86	C:\Hannah's FYP\Black4_neu.jpg	love	1	forehead	2		112	575	2	02	87	C:\Hannah's FYP\White11_neu.jpg	garbage	2	forehead	1		211	969	1	02	88	C:\Hannah's FYP\White12_neu.jpg	poison	2	forehead	1		211	562	1	02	89	C:\Hannah's FYP\White19_neu.jpg	love	2	forehead	2		212	489	2	02	90	C:\Hannah's FYP\Black13_neu.jpg	disgust	1	forehead	1		111	495	1	02	91	C:\Hannah's FYP\White22_neu.jpg	vomit	2	forehead	1		211	732	1	02	92	C:\Hannah's FYP\White17_neu.jpg	beauty	2	forehead	2		212	863	2	02	93	C:\Hannah's FYP\Black4_neu.jpg	smile	1	forehead	2		112	765	2	02	94	C:\Hannah's FYP\Black1_neu.jpg	sewage	1	forehead	1		111	863	1	02	95	C:\Hannah's FYP\White20_neu.jpg	joy	2	forehead	2		212	617	2	02	96	C:\Hannah's FYP\Black15_neu.jpg	garbage	1	forehead	1		111	985	1	02	97	C:\Hannah's FYP\White8_neu.jpg	despair	2	forehead	1		211	785	1	02	98	C:\Hannah's FYP\White16_neu.jpg	garbage	2	forehead	1		211	553	1	02	99	C:\Hannah's FYP\Black16_neu.jpg	sewage	1	forehead	1		111	836	1	02	100	C:\Hannah's FYP\White20_neu.jpg	romance	2	forehead	2		212	655	2	02	101	C:\Hannah's FYP\Black23_neu.jpg	vacation	1	forehead	2		112	682	2	02	102	C:\Hannah's FYP\White2_neu.jpg	sewage	2	forehead	1		211	455	1	02	103	C:\Hannah's FYP\Black10_neu.jpg	poison	1	forehead	1		111	910	1	02	104	C:\Hannah's FYP\White18_neu.jpg	smile	2	forehead	2		212	542	2	02	105	C:\Hannah's FYP\White2_neu.jpg	success	2	forehead	2		212	713	2	02	106	C:\Hannah's FYP\White18_neu.jpg	cockroach	2	forehead	1		211	618	1	02	107	C:\Hannah's FYP\White5_neu.jpg	cockroach	2	forehead	1		211	449	1	02	108	C:\Hannah's FYP\Black4_neu.jpg	disgust	1	forehead	1		111	633	2	12	109	C:\Hannah's FYP\Black2_neu.jpg	cockroach	1	forehead	1		111	680	1	02	110	C:\Hannah's FYP\White24_neu.jpg	success	2	forehead	2		212	638	2	02	111	C:\Hannah's FYP\White3_neu.jpg	smile	2	forehead	2		212	684	2	02	112	C:\Hannah's FYP\White6_neu.jpg	poison	2	forehead	1		211	465	1	02	113	C:\Hannah's FYP\White11_neu.jpg	pest	2	forehead	1		211	648	1	02	114	C:\Hannah's FYP\Black16_neu.jpg	beauty	1	forehead	2		112	527	2	02	115	C:\Hannah's FYP\White15_neu.jpg	love	2	forehead	2		212	571	2	02	116	C:\Hannah's FYP\Black2_neu.jpg	beauty	1	forehead	2		112	413	2	02	117	C:\Hannah's FYP\White18_neu.jpg	disgust	2	forehead	1		211	410	1	02	118	C:\Hannah's FYP\Black1_neu.jpg	vacation	1	forehead	2		112	483	2	02	119	C:\Hannah's FYP\Black14_neu.jpg	romance	1	forehead	2		112	465	2	02	120	C:\Hannah's FYP\Black23_neu.jpg	cockroach	1	forehead	1		111	549	1	02	121	C:\Hannah's FYP\Black23_neu.jpg	smile	1	forehead	2		112	613	2	02	122	C:\Hannah's FYP\Black7_neu.jpg	garbage	1	forehead	1		111	707	1	02	123	C:\Hannah's FYP\Black14_neu.jpg	love	1	forehead	2		112	680	2	02	124	C:\Hannah's FYP\Black17_neu.jpg	pest	1	forehead	1		111	675	1	02	125	C:\Hannah's FYP\White4_neu.jpg	vomit	2	forehead	1		211	688	1	02	126	C:\Hannah's FYP\Black2_neu.jpg	success	1	forehead	2		112	589	2	02	127	C:\Hannah's FYP\White24_neu.jpg	despair	2	forehead	1		211	766	1	02	128	C:\Hannah's FYP\Black24_neu.jpg	vomit	1	forehead	1		111	621	1	02	129	C:\Hannah's FYP\White12_neu.jpg	despair	2	forehead	1		211	549	1	02	130	C:\Hannah's FYP\White5_neu.jpg	vomit	2	forehead	1		211	424	1	02	131	C:\Hannah's FYP\White24_neu.jpg	paradise	2	forehead	2		212	440	2	02	132	C:\Hannah's FYP\Black21_neu.jpg	poison	1	forehead	1		111	492	1	02	133	C:\Hannah's FYP\White13_neu.jpg	beauty	2	forehead	2		212	561	2	02	134	C:\Hannah's FYP\Black21_neu.jpg	success	1	forehead	2		112	560	2	02	135	C:\Hannah's FYP\Black5_neu.jpg	poison	1	forehead	1		111	563	1	02	136	C:\Hannah's FYP\White21_neu.jpg	garbage	2	forehead	1		211	626	1	02	137	C:\Hannah's FYP\White23_neu.jpg	sewage	2	forehead	1		211	509	1	02	138	C:\Hannah's FYP\White21_neu.jpg	romance	2	forehead	2		212	742	2	02	139	C:\Hannah's FYP\Black19_neu.jpg	cockroach	1	forehead	1		111	497	1	02	140	C:\Hannah's FYP\White7_neu.jpg	romance	2	forehead	2		212	782	2	02	141	C:\Hannah's FYP\Black12_neu.jpg	vacation	1	forehead	2		112	536	2	02	142	C:\Hannah's FYP\Black3_neu.jpg	paradise	1	forehead	2		112	537	2	02	143	C:\Hannah's FYP\White2_neu.jpg	pest	2	forehead	1		211	573	2	12	144	C:\Hannah's FYP\White19_neu.jpg	success	2	forehead	2		212	516	2	02	145	C:\Hannah's FYP\Black16_neu.jpg	smile	1	forehead	2		112	528	2	02	146	C:\Hannah's FYP\Black10_neu.jpg	romance	1	forehead	2		112	556	2	02	147	C:\Hannah's FYP\White2_neu.jpg	romance	2	forehead	2		212	407	2	02	148	C:\Hannah's FYP\White22_neu.jpg	joy	2	forehead	2		212	519	2	02	149	C:\Hannah's FYP\White10_neu.jpg	vomit	2	forehead	1		211	539	1	02	150	C:\Hannah's FYP\Black21_neu.jpg	romance	1	forehead	2		112	579	2	02	151	C:\Hannah's FYP\White8_neu.jpg	smile	2	forehead	2		212	429	2	02	152	C:\Hannah's FYP\Black12_neu.jpg	success	1	forehead	2		112	469	2	02	153	C:\Hannah's FYP\Black5_neu.jpg	cockroach	1	forehead	1		111	387	1	02	154	C:\Hannah's FYP\White6_neu.jpg	vacation	2	forehead	2		212	357	2	02	155	C:\Hannah's FYP\White9_neu.jpg	smile	2	forehead	2		212	416	2	02	156	C:\Hannah's FYP\White6_neu.jpg	success	2	forehead	2		212	881	2	02	157	C:\Hannah's FYP\Black6_neu.jpg	disgust	1	forehead	1		111	741	1	02	158	C:\Hannah's FYP\Black14_neu.jpg	pest	1	forehead	1		111	1056	1	02	159	C:\Hannah's FYP\Black8_neu.jpg	smile	1	forehead	2		112	427	2	02	160	C:\Hannah's FYP\Black8_neu.jpg	pest	1	forehead	1		111	505	1	02	161	C:\Hannah's FYP\White19_neu.jpg	despair	2	forehead	1		211	611	1	02	162	C:\Hannah's FYP\Black18_neu.jpg	vomit	1	forehead	1		111	555	1	02	163	C:\Hannah's FYP\Black3_neu.jpg	joy	1	forehead	2		112	452	2	02	164	C:\Hannah's FYP\White1_neu.jpg	poison	2	forehead	1		211	523	1	02	165	C:\Hannah's FYP\Black4_neu.jpg	poison	1	forehead	1		111	535	1	02	166	C:\Hannah's FYP\Black17_neu.jpg	romance	1	forehead	2		112	512	2	02	167	C:\Hannah's FYP\Black10_neu.jpg	smile	1	forehead	2		112	1029	2	02	168	C:\Hannah's FYP\Black9_neu.jpg	sewage	1	forehead	1		111	723	1	02	169	C:\Hannah's FYP\White10_neu.jpg	sewage	2	forehead	1		211	654	1	02	170	C:\Hannah's FYP\White4_neu.jpg	vacation	2	forehead	2		212	524	1	12	171	C:\Hannah's FYP\White14_neu.jpg	joy	2	forehead	2		212	613	2	02	172	C:\Hannah's FYP\Black1_neu.jpg	pest	1	forehead	1		111	613	1	02	173	C:\Hannah's FYP\Black5_neu.jpg	paradise	1	forehead	2		112	605	2	02	174	C:\Hannah's FYP\White16_neu.jpg	paradise	2	forehead	2		212	446	2	02	175	C:\Hannah's FYP\White18_neu.jpg	paradise	2	forehead	2		212	498	2	02	176	C:\Hannah's FYP\Black15_neu.jpg	success	1	forehead	2		112	640	2	02	177	C:\Hannah's FYP\Black20_neu.jpg	vacation	1	forehead	2		112	562	2	02	178	C:\Hannah's FYP\Black22_neu.jpg	pest	1	forehead	1		111	546	1	02	179	C:\Hannah's FYP\Black18_neu.jpg	joy	1	forehead	2		112	597	2	02	180	C:\Hannah's FYP\White4_neu.jpg	garbage	2	forehead	1		211	534	1	02	181	C:\Hannah's FYP\White16_neu.jpg	poison	2	forehead	1		211	561	1	02	182	C:\Hannah's FYP\White4_neu.jpg	love	2	forehead	2		212	516	2	02	183	C:\Hannah's FYP\Black7_neu.jpg	love	1	forehead	2		112	1046	2	02	184	C:\Hannah's FYP\Black18_neu.jpg	love	1	forehead	2		112	692	2	02	185	C:\Hannah's FYP\Black8_neu.jpg	success	1	forehead	2		112	447	2	02	186	C:\Hannah's FYP\White19_neu.jpg	garbage	2	forehead	1		211	579	1	02	187	C:\Hannah's FYP\Black12_neu.jpg	pest	1	forehead	1		111	957	1	02	188	C:\Hannah's FYP\White11_neu.jpg	beauty	2	forehead	2		212	526	2	02	189	C:\Hannah's FYP\Black19_neu.jpg	paradise	1	forehead	2		112	602	2	02	190	C:\Hannah's FYP\White13_neu.jpg	pest	2	forehead	1		211	634	1	02	191	C:\Hannah's FYP\White22_neu.jpg	love	2	forehead	2		212	1009	2	02	192	C:\Hannah's FYP\Black13_neu.jpg	paradise	1	forehead	2		112	560	2	03	1	C:\Hannah's FYP\White14_smi.jpg		2	eyes		1	221	666	1	03	2	C:\Hannah's FYP\Black8_smi.jpg		1	forehead		1	111	648	1	03	3	C:\Hannah's FYP\White20_smi.jpg		2	nose		1	231	463	1	03	4	C:\Hannah's FYP\Black48_smi.jpg		1	nose		2	132	533	2	03	5	C:\Hannah's FYP\White39_smi.jpg		2	eyes		2	222	1073	1	13	6	C:\Hannah's FYP\White8_smi.jpg		2	forehead		1	211	597	1	03	7	C:\Hannah's FYP\White26_smi.jpg		2	forehead		2	212	470	1	13	8	C:\Hannah's FYP\Black41_smi.jpg		1	nose		2	132	1636	1	13	9	C:\Hannah's FYP\White32_smi.jpg		2	forehead		2	212	561	2	03	10	C:\Hannah's FYP\Black37_smi.jpg		1	eyes		2	122	531	2	03	11	C:\Hannah's FYP\White35_smi.jpg		2	eyes		2	222	455	2	03	12	C:\Hannah's FYP\White1_smi.jpg		2	forehead		1	211	438	1	03	13	C:\Hannah's FYP\Black17_smi.jpg		1	nose		1	131	637	1	03	14	C:\Hannah's FYP\White46_smi.jpg		2	nose		2	232	772	2	03	15	C:\Hannah's FYP\White22_smi.jpg		2	nose		1	231	421	1	03	16	C:\Hannah's FYP\Black25_smi.jpg		1	forehead		2	112	446	1	13	17	C:\Hannah's FYP\White5_smi.jpg		2	forehead		1	211	573	1	03	18	C:\Hannah's FYP\Black23_smi.jpg		1	nose		1	131	415	1	03	19	C:\Hannah's FYP\White24_smi.jpg		2	nose		1	231	392	1	03	20	C:\Hannah's FYP\Black46_smi.jpg		1	nose		2	132	881	2	03	21	C:\Hannah's FYP\White38_smi.jpg		2	eyes		2	222	654	1	13	22	C:\Hannah's FYP\Black34_smi.jpg		1	eyes		2	122	596	2	03	23	C:\Hannah's FYP\White6_smi.jpg		2	forehead		1	211	349	1	03	24	C:\Hannah's FYP\White21_smi.jpg		2	nose		1	231	392	1	03	25	C:\Hannah's FYP\White9_smi.jpg		2	eyes		1	221	306	1	03	26	C:\Hannah's FYP\White34_smi.jpg		2	eyes		2	222	623	1	13	27	C:\Hannah's FYP\Black30_smi.jpg		1	forehead		2	112	495	2	03	28	C:\Hannah's FYP\Black19_smi.jpg		1	nose		1	131	388	1	03	29	C:\Hannah's FYP\White23_smi.jpg		2	nose		1	231	374	1	03	30	C:\Hannah's FYP\White19_smi.jpg		2	nose		1	231	376	1	03	31	C:\Hannah's FYP\Black9_smi.jpg		1	eyes		1	121	435	1	03	32	C:\Hannah's FYP\Black47_smi.jpg		1	nose		2	132	834	2	03	33	C:\Hannah's FYP\Black38_smi.jpg		1	eyes		2	122	529	1	13	34	C:\Hannah's FYP\Black24_smi.jpg		1	nose		1	131	716	2	13	35	C:\Hannah's FYP\Black7_smi.jpg		1	forehead		1	111	400	1	03	36	C:\Hannah's FYP\Black3_smi.jpg		1	forehead		1	111	529	1	03	37	C:\Hannah's FYP\Black42_smi.jpg		1	nose		2	132	517	2	03	38	C:\Hannah's FYP\Black16_smi.jpg		1	eyes		1	121	1049	1	03	39	C:\Hannah's FYP\White31_smi.jpg		2	forehead		2	212	423	1	13	40	C:\Hannah's FYP\Black2_smi.jpg		1	forehead		1	111	599	2	13	41	C:\Hannah's FYP\White17_smi.jpg		2	nose		1	231	352	1	03	42	C:\Hannah's FYP\Black26_smi.jpg		1	forehead		2	112	411	2	03	43	C:\Hannah's FYP\White13_smi.jpg		2	eyes		1	221	780	2	13	44	C:\Hannah's FYP\Black45_smi.jpg		1	nose		2	132	445	2	03	45	C:\Hannah's FYP\White2_smi.jpg		2	forehead		1	211	509	1	03	46	C:\Hannah's FYP\White30_smi.jpg		2	forehead		2	212	529	1	13	47	C:\Hannah's FYP\White27_smi.jpg		2	forehead		2	212	565	2	03	48	C:\Hannah's FYP\White4_smi.jpg		2	forehead		1	211	680	2	13	49	C:\Hannah's FYP\White18_smi.jpg		2	nose		1	231	509	2	13	50	C:\Hannah's FYP\Black35_smi.jpg		1	eyes		2	122	418	2	03	51	C:\Hannah's FYP\Black15_smi.jpg		1	eyes		1	121	482	1	03	52	C:\Hannah's FYP\Black28_smi.jpg		1	forehead		2	112	568	1	13	53	C:\Hannah's FYP\Black21_smi.jpg		1	nose		1	131	762	2	13	54	C:\Hannah's FYP\Black40_smi.jpg		1	eyes		2	122	532	2	03	55	C:\Hannah's FYP\Black4_smi.jpg		1	forehead		1	111	624	2	13	56	C:\Hannah's FYP\White37_smi.jpg		2	eyes		2	222	407	2	03	57	C:\Hannah's FYP\White48_smi.jpg		2	nose		2	232	320	1	13	58	C:\Hannah's FYP\Black22_smi.jpg		1	nose		1	131	493	2	13	59	C:\Hannah's FYP\Black44_smi.jpg		1	nose		2	132	714	2	03	60	C:\Hannah's FYP\Black29_smi.jpg		1	forehead		2	112	358	2	03	61	C:\Hannah's FYP\White41_smi.jpg		2	nose		2	232	609	2	03	62	C:\Hannah's FYP\White16_smi.jpg		2	eyes		1	221	521	1	03	63	C:\Hannah's FYP\Black14_smi.jpg		1	eyes		1	121	438	1	03	64	C:\Hannah's FYP\White29_smi.jpg		2	forehead		2	212	388	2	03	65	C:\Hannah's FYP\Black33_smi.jpg		1	eyes		2	122	398	2	03	66	C:\Hannah's FYP\Black10_smi.jpg		1	eyes		1	121	1016	1	03	67	C:\Hannah's FYP\Black1_smi.jpg		1	forehead		1	111	439	2	13	68	C:\Hannah's FYP\White43_smi.jpg		2	nose		2	232	390	2	03	69	C:\Hannah's FYP\White44_smi.jpg		2	nose		2	232	464	2	03	70	C:\Hannah's FYP\White36_smi.jpg		2	eyes		2	222	535	2	03	71	C:\Hannah's FYP\White15_smi.jpg		2	eyes		1	221	818	2	13	72	C:\Hannah's FYP\White28_smi.jpg		2	forehead		2	212	298	2	03	73	C:\Hannah's FYP\White42_smi.jpg		2	nose		2	232	312	2	03	74	C:\Hannah's FYP\Black12_smi.jpg		1	eyes		1	121	525	1	03	75	C:\Hannah's FYP\White25_smi.jpg		2	forehead		2	212	905	2	03	76	C:\Hannah's FYP\Black11_smi.jpg		1	eyes		1	121	429	1	03	77	C:\Hannah's FYP\Black5_smi.jpg		1	forehead		1	111	829	2	13	78	C:\Hannah's FYP\Black31_smi.jpg		1	forehead		2	112	420	2	03	79	C:\Hannah's FYP\White40_smi.jpg		2	eyes		2	222	396	2	03	80	C:\Hannah's FYP\White3_smi.jpg		2	forehead		1	211	414	1	03	81	C:\Hannah's FYP\White47_smi.jpg		2	nose		2	232	431	2	03	82	C:\Hannah's FYP\Black27_smi.jpg		1	forehead		2	112	1063	2	03	83	C:\Hannah's FYP\Black36_smi.jpg		1	eyes		2	122	396	2	03	84	C:\Hannah's FYP\Black13_smi.jpg		1	eyes		1	121	966	1	03	85	C:\Hannah's FYP\White10_smi.jpg		2	eyes		1	221	487	1	03	86	C:\Hannah's FYP\Black18_smi.jpg		1	nose		1	131	516	2	13	87	C:\Hannah's FYP\White12_smi.jpg		2	eyes		1	221	553	1	03	88	C:\Hannah's FYP\White33_smi.jpg		2	eyes		2	222	491	2	03	89	C:\Hannah's FYP\White45_smi.jpg		2	nose		2	232	777	1	13	90	C:\Hannah's FYP\Black39_smi.jpg		1	eyes		2	122	506	2	03	91	C:\Hannah's FYP\Black32_smi.jpg		1	forehead		2	112	454	2	03	92	C:\Hannah's FYP\Black20_smi.jpg		1	nose		1	131	813	2	13	93	C:\Hannah's FYP\Black43_smi.jpg		1	nose		2	132	397	2	03	94	C:\Hannah's FYP\White11_smi.jpg		2	eyes		1	221	478	1	03	95	C:\Hannah's FYP\Black6_smi.jpg		1	forehead		1	111	845	1	03	96	C:\Hannah's FYP\White7_smi.jpg		2	forehead		1	211	547	2	1