Block	Trial	FaceFilename	WordFilename	Race	Fix	WordValence	Familiar	Condition	RT	Key	Error1	1		romance			2			3753	2	1	2		pest			1			874	1	1	3		despair			1			1277	1	1	4		success			2			568	2	1	5		vacation			2			665	2	1	6		joy			2			526	2	1	7		smile			2			577	2	1	8		cockroach			1			593	1	1	9		garbage			1			569	1	1	10		vacation			2			650	2	1	11		disgust			1			824	1	1	12		garbage			1			589	1	1	13		sewage			1			517	1	1	14		beauty			2			552	2	1	15		poison			1			2274	1	1	16		pest			1			689	1	1	17		joy			2			637	2	1	18		despair			1			1155	1	1	19		love			2			586	2	1	20		love			2			419	2	1	21		beauty			2			554	2	1	22		paradise			2			755	2	1	23		smile			2			764	2	1	24		success			2			477	2	1	25		vomit			1			610	1	1	26		cockroach			1			593	1	1	27		paradise			2			593	2	1	28		romance			2			585	2	1	29		vomit			1			569	1	1	30		sewage			1			506	1	1	31		poison			1			445	1	1	32		disgust			1			716	1	2	1	C:\Hannah's FYP\Black22_neu.jpg	joy	1	forehead	2		112	1343	2	02	2	C:\Hannah's FYP\White15_neu.jpg	sewage	2	forehead	1		211	671	1	02	3	C:\Hannah's FYP\Black16_neu.jpg	despair	1	forehead	1		111	788	1	02	4	C:\Hannah's FYP\Black17_neu.jpg	despair	1	forehead	1		111	818	1	02	5	C:\Hannah's FYP\Black9_neu.jpg	joy	1	forehead	2		112	544	2	02	6	C:\Hannah's FYP\White9_neu.jpg	disgust	2	forehead	1		211	835	1	02	7	C:\Hannah's FYP\Black14_neu.jpg	cockroach	1	forehead	1		111	832	1	02	8	C:\Hannah's FYP\Black2_neu.jpg	cockroach	1	forehead	1		111	639	1	02	9	C:\Hannah's FYP\Black10_neu.jpg	success	1	forehead	2		112	918	2	02	10	C:\Hannah's FYP\White6_neu.jpg	disgust	2	forehead	1		211	1848	1	02	11	C:\Hannah's FYP\White18_neu.jpg	pest	2	forehead	1		211	976	1	02	12	C:\Hannah's FYP\White21_neu.jpg	vomit	2	forehead	1		211	717	1	02	13	C:\Hannah's FYP\White8_neu.jpg	pest	2	forehead	1		211	849	1	02	14	C:\Hannah's FYP\Black5_neu.jpg	smile	1	forehead	2		112	1119	2	02	15	C:\Hannah's FYP\Black17_neu.jpg	pest	1	forehead	1		111	879	1	02	16	C:\Hannah's FYP\Black17_neu.jpg	love	1	forehead	2		112	689	2	02	17	C:\Hannah's FYP\White11_neu.jpg	garbage	2	forehead	1		211	789	1	02	18	C:\Hannah's FYP\Black11_neu.jpg	romance	1	forehead	2		112	2014	2	02	19	C:\Hannah's FYP\Black23_neu.jpg	poison	1	forehead	1		111	766	1	02	20	C:\Hannah's FYP\Black11_neu.jpg	sewage	1	forehead	1		111	656	1	02	21	C:\Hannah's FYP\Black10_neu.jpg	poison	1	forehead	1		111	1278	1	02	22	C:\Hannah's FYP\White8_neu.jpg	success	2	forehead	2		212	738	2	02	23	C:\Hannah's FYP\Black9_neu.jpg	cockroach	1	forehead	1		111	700	1	02	24	C:\Hannah's FYP\Black20_neu.jpg	poison	1	forehead	1		111	780	1	02	25	C:\Hannah's FYP\Black9_neu.jpg	vacation	1	forehead	2		112	693	2	02	26	C:\Hannah's FYP\White23_neu.jpg	vacation	2	forehead	2		212	998	2	02	27	C:\Hannah's FYP\White13_neu.jpg	vacation	2	forehead	2		212	654	2	02	28	C:\Hannah's FYP\Black21_neu.jpg	garbage	1	forehead	1		111	664	1	02	29	C:\Hannah's FYP\White24_neu.jpg	cockroach	2	forehead	1		211	614	1	02	30	C:\Hannah's FYP\White1_neu.jpg	disgust	2	forehead	1		211	790	1	02	31	C:\Hannah's FYP\White5_neu.jpg	romance	2	forehead	2		212	606	2	02	32	C:\Hannah's FYP\Black6_neu.jpg	disgust	1	forehead	1		111	1399	1	02	33	C:\Hannah's FYP\White6_neu.jpg	love	2	forehead	2		212	669	2	02	34	C:\Hannah's FYP\Black11_neu.jpg	disgust	1	forehead	1		111	1627	1	02	35	C:\Hannah's FYP\White24_neu.jpg	garbage	2	forehead	1		211	727	1	02	36	C:\Hannah's FYP\White22_neu.jpg	smile	2	forehead	2		212	547	2	02	37	C:\Hannah's FYP\White2_neu.jpg	smile	2	forehead	2		212	2069	2	02	38	C:\Hannah's FYP\White18_neu.jpg	sewage	2	forehead	1		211	868	1	02	39	C:\Hannah's FYP\Black12_neu.jpg	garbage	1	forehead	1		111	1441	1	02	40	C:\Hannah's FYP\Black23_neu.jpg	cockroach	1	forehead	1		111	619	1	02	41	C:\Hannah's FYP\Black12_neu.jpg	beauty	1	forehead	2		112	794	2	02	42	C:\Hannah's FYP\Black13_neu.jpg	vacation	1	forehead	2		112	602	2	02	43	C:\Hannah's FYP\White6_neu.jpg	despair	2	forehead	1		211	842	1	02	44	C:\Hannah's FYP\White18_neu.jpg	romance	2	forehead	2		212	549	2	02	45	C:\Hannah's FYP\Black3_neu.jpg	smile	1	forehead	2		112	646	2	02	46	C:\Hannah's FYP\Black18_neu.jpg	vomit	1	forehead	1		111	772	1	02	47	C:\Hannah's FYP\White9_neu.jpg	success	2	forehead	2		212	869	2	02	48	C:\Hannah's FYP\Black24_neu.jpg	love	1	forehead	2		112	487	2	02	49	C:\Hannah's FYP\Black22_neu.jpg	romance	1	forehead	2		112	569	2	02	50	C:\Hannah's FYP\Black13_neu.jpg	paradise	1	forehead	2		112	507	2	02	51	C:\Hannah's FYP\White13_neu.jpg	poison	2	forehead	1		211	816	1	02	52	C:\Hannah's FYP\Black15_neu.jpg	vomit	1	forehead	1		111	647	1	02	53	C:\Hannah's FYP\White10_neu.jpg	paradise	2	forehead	2		212	646	2	02	54	C:\Hannah's FYP\Black12_neu.jpg	love	1	forehead	2		112	628	2	02	55	C:\Hannah's FYP\White20_neu.jpg	vacation	2	forehead	2		212	720	2	02	56	C:\Hannah's FYP\White13_neu.jpg	disgust	2	forehead	1		211	756	1	02	57	C:\Hannah's FYP\White12_neu.jpg	smile	2	forehead	2		212	645	2	02	58	C:\Hannah's FYP\White5_neu.jpg	paradise	2	forehead	2		212	572	2	02	59	C:\Hannah's FYP\Black2_neu.jpg	despair	1	forehead	1		111	702	1	02	60	C:\Hannah's FYP\White2_neu.jpg	cockroach	2	forehead	1		211	778	1	02	61	C:\Hannah's FYP\White9_neu.jpg	romance	2	forehead	2		212	635	2	02	62	C:\Hannah's FYP\Black15_neu.jpg	garbage	1	forehead	1		111	730	1	02	63	C:\Hannah's FYP\Black18_neu.jpg	cockroach	1	forehead	1		111	613	1	02	64	C:\Hannah's FYP\White16_neu.jpg	pest	2	forehead	1		211	629	1	02	65	C:\Hannah's FYP\Black6_neu.jpg	despair	1	forehead	1		111	596	1	02	66	C:\Hannah's FYP\White4_neu.jpg	beauty	2	forehead	2		212	676	2	02	67	C:\Hannah's FYP\White5_neu.jpg	garbage	2	forehead	1		211	906	1	02	68	C:\Hannah's FYP\Black7_neu.jpg	vomit	1	forehead	1		111	603	1	02	69	C:\Hannah's FYP\White16_neu.jpg	success	2	forehead	2		212	683	2	02	70	C:\Hannah's FYP\White21_neu.jpg	sewage	2	forehead	1		211	757	1	02	71	C:\Hannah's FYP\Black6_neu.jpg	vacation	1	forehead	2		112	543	2	02	72	C:\Hannah's FYP\White23_neu.jpg	beauty	2	forehead	2		212	902	2	02	73	C:\Hannah's FYP\White7_neu.jpg	poison	2	forehead	1		211	618	1	02	74	C:\Hannah's FYP\Black2_neu.jpg	beauty	1	forehead	2		112	497	2	02	75	C:\Hannah's FYP\Black10_neu.jpg	smile	1	forehead	2		112	639	2	02	76	C:\Hannah's FYP\Black19_neu.jpg	romance	1	forehead	2		112	582	2	02	77	C:\Hannah's FYP\Black4_neu.jpg	sewage	1	forehead	1		111	888	1	02	78	C:\Hannah's FYP\White10_neu.jpg	pest	2	forehead	1		211	868	1	02	79	C:\Hannah's FYP\Black15_neu.jpg	joy	1	forehead	2		112	801	2	02	80	C:\Hannah's FYP\Black18_neu.jpg	paradise	1	forehead	2		112	1593	2	02	81	C:\Hannah's FYP\Black24_neu.jpg	sewage	1	forehead	1		111	1004	1	02	82	C:\Hannah's FYP\Black21_neu.jpg	paradise	1	forehead	2		112	1375	2	02	83	C:\Hannah's FYP\Black1_neu.jpg	pest	1	forehead	1		111	799	1	02	84	C:\Hannah's FYP\White16_neu.jpg	despair	2	forehead	1		211	1295	1	02	85	C:\Hannah's FYP\White17_neu.jpg	vomit	2	forehead	1		211	1858	1	02	86	C:\Hannah's FYP\Black14_neu.jpg	romance	1	forehead	2		112	861	2	02	87	C:\Hannah's FYP\White11_neu.jpg	love	2	forehead	2		212	698	2	02	88	C:\Hannah's FYP\White6_neu.jpg	beauty	2	forehead	2		212	463	2	02	89	C:\Hannah's FYP\Black12_neu.jpg	vomit	1	forehead	1		111	998	1	02	90	C:\Hannah's FYP\White19_neu.jpg	love	2	forehead	2		212	747	2	02	91	C:\Hannah's FYP\White3_neu.jpg	success	2	forehead	2		212	1149	2	02	92	C:\Hannah's FYP\Black20_neu.jpg	joy	1	forehead	2		112	610	2	02	93	C:\Hannah's FYP\White12_neu.jpg	cockroach	2	forehead	1		211	738	1	02	94	C:\Hannah's FYP\Black14_neu.jpg	sewage	1	forehead	1		111	652	1	02	95	C:\Hannah's FYP\Black22_neu.jpg	vomit	1	forehead	1		111	592	1	02	96	C:\Hannah's FYP\White12_neu.jpg	beauty	2	forehead	2		212	641	2	02	97	C:\Hannah's FYP\White13_neu.jpg	paradise	2	forehead	2		212	640	2	02	98	C:\Hannah's FYP\White8_neu.jpg	sewage	2	forehead	1		211	1495	1	02	99	C:\Hannah's FYP\Black23_neu.jpg	smile	1	forehead	2		112	502	2	02	100	C:\Hannah's FYP\White4_neu.jpg	love	2	forehead	2		212	1835	2	02	101	C:\Hannah's FYP\White15_neu.jpg	romance	2	forehead	2		212	543	2	02	102	C:\Hannah's FYP\Black13_neu.jpg	poison	1	forehead	1		111	546	1	02	103	C:\Hannah's FYP\White3_neu.jpg	romance	2	forehead	2		212	733	2	02	104	C:\Hannah's FYP\White14_neu.jpg	garbage	2	forehead	1		211	653	1	02	105	C:\Hannah's FYP\Black22_neu.jpg	pest	1	forehead	1		111	2152	1	02	106	C:\Hannah's FYP\White2_neu.jpg	sewage	2	forehead	1		211	534	1	02	107	C:\Hannah's FYP\White7_neu.jpg	joy	2	forehead	2		212	754	2	02	108	C:\Hannah's FYP\Black24_neu.jpg	despair	1	forehead	1		111	633	1	02	109	C:\Hannah's FYP\Black1_neu.jpg	romance	1	forehead	2		112	824	2	02	110	C:\Hannah's FYP\White14_neu.jpg	cockroach	2	forehead	1		211	700	1	02	111	C:\Hannah's FYP\White10_neu.jpg	poison	2	forehead	1		211	744	1	02	112	C:\Hannah's FYP\White19_neu.jpg	poison	2	forehead	1		211	728	1	02	113	C:\Hannah's FYP\Black8_neu.jpg	cockroach	1	forehead	1		111	745	1	02	114	C:\Hannah's FYP\Black23_neu.jpg	beauty	1	forehead	2		112	593	2	02	115	C:\Hannah's FYP\Black19_neu.jpg	sewage	1	forehead	1		111	642	1	02	116	C:\Hannah's FYP\Black4_neu.jpg	vacation	1	forehead	2		112	873	2	02	117	C:\Hannah's FYP\Black19_neu.jpg	beauty	1	forehead	2		112	510	2	02	118	C:\Hannah's FYP\Black7_neu.jpg	sewage	1	forehead	1		111	2232	1	02	119	C:\Hannah's FYP\White8_neu.jpg	smile	2	forehead	2		212	554	2	02	120	C:\Hannah's FYP\White19_neu.jpg	smile	2	forehead	2		212	562	2	02	121	C:\Hannah's FYP\Black16_neu.jpg	smile	1	forehead	2		112	644	2	02	122	C:\Hannah's FYP\Black20_neu.jpg	disgust	1	forehead	1		111	559	1	02	123	C:\Hannah's FYP\White11_neu.jpg	sewage	2	forehead	1		211	633	1	02	124	C:\Hannah's FYP\White1_neu.jpg	vacation	2	forehead	2		212	601	2	02	125	C:\Hannah's FYP\White2_neu.jpg	joy	2	forehead	2		212	609	2	02	126	C:\Hannah's FYP\Black5_neu.jpg	poison	1	forehead	1		111	466	1	02	127	C:\Hannah's FYP\White14_neu.jpg	joy	2	forehead	2		212	821	2	02	128	C:\Hannah's FYP\Black4_neu.jpg	poison	1	forehead	1		111	612	1	02	129	C:\Hannah's FYP\White11_neu.jpg	joy	2	forehead	2		212	796	2	02	130	C:\Hannah's FYP\White20_neu.jpg	garbage	2	forehead	1		211	673	1	02	131	C:\Hannah's FYP\Black6_neu.jpg	success	1	forehead	2		112	2543	2	02	132	C:\Hannah's FYP\White3_neu.jpg	despair	2	forehead	1		211	564	1	02	133	C:\Hannah's FYP\Black15_neu.jpg	love	1	forehead	2		112	462	2	02	134	C:\Hannah's FYP\White15_neu.jpg	beauty	2	forehead	2		212	581	2	02	135	C:\Hannah's FYP\Black16_neu.jpg	success	1	forehead	2		112	2127	2	02	136	C:\Hannah's FYP\Black5_neu.jpg	pest	1	forehead	1		111	646	1	02	137	C:\Hannah's FYP\White14_neu.jpg	love	2	forehead	2		212	585	2	02	138	C:\Hannah's FYP\Black9_neu.jpg	despair	1	forehead	1		111	562	1	02	139	C:\Hannah's FYP\White10_neu.jpg	vacation	2	forehead	2		212	605	2	02	140	C:\Hannah's FYP\White24_neu.jpg	love	2	forehead	2		212	2885	2	02	141	C:\Hannah's FYP\White5_neu.jpg	cockroach	2	forehead	1		211	732	1	02	142	C:\Hannah's FYP\White17_neu.jpg	disgust	2	forehead	1		211	519	1	02	143	C:\Hannah's FYP\White20_neu.jpg	cockroach	2	forehead	1		211	592	1	02	144	C:\Hannah's FYP\Black2_neu.jpg	success	1	forehead	2		112	521	2	02	145	C:\Hannah's FYP\Black5_neu.jpg	love	1	forehead	2		112	933	1	12	146	C:\Hannah's FYP\Black21_neu.jpg	disgust	1	forehead	1		111	1684	1	02	147	C:\Hannah's FYP\White22_neu.jpg	romance	2	forehead	2		212	503	2	02	148	C:\Hannah's FYP\White19_neu.jpg	despair	2	forehead	1		211	896	1	02	149	C:\Hannah's FYP\Black14_neu.jpg	beauty	1	forehead	2		112	1180	2	02	150	C:\Hannah's FYP\Black20_neu.jpg	vacation	1	forehead	2		112	536	2	02	151	C:\Hannah's FYP\White17_neu.jpg	success	2	forehead	2		212	611	2	02	152	C:\Hannah's FYP\White23_neu.jpg	poison	2	forehead	1		211	592	1	02	153	C:\Hannah's FYP\Black8_neu.jpg	beauty	1	forehead	2		112	607	2	02	154	C:\Hannah's FYP\White7_neu.jpg	vacation	2	forehead	2		212	703	2	02	155	C:\Hannah's FYP\Black3_neu.jpg	love	1	forehead	2		112	674	2	02	156	C:\Hannah's FYP\Black21_neu.jpg	success	1	forehead	2		112	644	2	02	157	C:\Hannah's FYP\White22_neu.jpg	pest	2	forehead	1		211	907	1	02	158	C:\Hannah's FYP\White20_neu.jpg	joy	2	forehead	2		212	1203	2	02	159	C:\Hannah's FYP\Black1_neu.jpg	vomit	1	forehead	1		111	1169	1	02	160	C:\Hannah's FYP\Black10_neu.jpg	pest	1	forehead	1		111	641	1	02	161	C:\Hannah's FYP\Black13_neu.jpg	disgust	1	forehead	1		111	960	1	02	162	C:\Hannah's FYP\Black4_neu.jpg	joy	1	forehead	2		112	889	2	02	163	C:\Hannah's FYP\White21_neu.jpg	joy	2	forehead	2		212	570	2	02	164	C:\Hannah's FYP\Black16_neu.jpg	pest	1	forehead	1		111	644	1	02	165	C:\Hannah's FYP\White23_neu.jpg	despair	2	forehead	1		211	862	1	02	166	C:\Hannah's FYP\White1_neu.jpg	pest	2	forehead	1		211	652	1	02	167	C:\Hannah's FYP\Black19_neu.jpg	garbage	1	forehead	1		111	1746	1	02	168	C:\Hannah's FYP\Black8_neu.jpg	romance	1	forehead	2		112	1463	2	02	169	C:\Hannah's FYP\White12_neu.jpg	vomit	2	forehead	1		211	723	1	02	170	C:\Hannah's FYP\White16_neu.jpg	smile	2	forehead	2		212	502	2	02	171	C:\Hannah's FYP\Black18_neu.jpg	success	1	forehead	2		112	867	2	02	172	C:\Hannah's FYP\White24_neu.jpg	paradise	2	forehead	2		212	1384	2	02	173	C:\Hannah's FYP\White1_neu.jpg	paradise	2	forehead	2		212	480	2	02	174	C:\Hannah's FYP\White4_neu.jpg	poison	2	forehead	1		211	734	1	02	175	C:\Hannah's FYP\Black17_neu.jpg	smile	1	forehead	2		112	575	2	02	176	C:\Hannah's FYP\Black3_neu.jpg	disgust	1	forehead	1		111	904	1	02	177	C:\Hannah's FYP\Black24_neu.jpg	vacation	1	forehead	2		112	1137	2	02	178	C:\Hannah's FYP\White17_neu.jpg	beauty	2	forehead	2		212	498	2	02	179	C:\Hannah's FYP\Black11_neu.jpg	paradise	1	forehead	2		112	727	2	02	180	C:\Hannah's FYP\White18_neu.jpg	paradise	2	forehead	2		212	503	2	02	181	C:\Hannah's FYP\White9_neu.jpg	despair	2	forehead	1		211	1156	1	02	182	C:\Hannah's FYP\White3_neu.jpg	garbage	2	forehead	1		211	908	1	02	183	C:\Hannah's FYP\White15_neu.jpg	vomit	2	forehead	1		211	776	1	02	184	C:\Hannah's FYP\Black7_neu.jpg	joy	1	forehead	2		112	1023	2	02	185	C:\Hannah's FYP\Black1_neu.jpg	paradise	1	forehead	2		112	1205	2	02	186	C:\Hannah's FYP\White7_neu.jpg	vomit	2	forehead	1		211	620	1	02	187	C:\Hannah's FYP\Black8_neu.jpg	garbage	1	forehead	1		111	1465	1	02	188	C:\Hannah's FYP\Black3_neu.jpg	garbage	1	forehead	1		111	548	1	02	189	C:\Hannah's FYP\Black7_neu.jpg	paradise	1	forehead	2		112	861	2	02	190	C:\Hannah's FYP\White21_neu.jpg	success	2	forehead	2		212	823	2	02	191	C:\Hannah's FYP\White4_neu.jpg	vomit	2	forehead	1		211	565	1	02	192	C:\Hannah's FYP\White22_neu.jpg	disgust	2	forehead	1		211	904	1	03	1	C:\Hannah's FYP\Black2_smi.jpg		1	forehead		1	111	1216	1	03	2	C:\Hannah's FYP\White15_smi.jpg		2	eyes		1	221	534	1	03	3	C:\Hannah's FYP\White45_smi.jpg		2	nose		2	232	289	1	13	4	C:\Hannah's FYP\Black41_smi.jpg		1	nose		2	132	439	1	13	5	C:\Hannah's FYP\White38_smi.jpg		2	eyes		2	222	422	1	13	6	C:\Hannah's FYP\Black48_smi.jpg		1	nose		2	132	414	2	03	7	C:\Hannah's FYP\White13_smi.jpg		2	eyes		1	221	422	2	13	8	C:\Hannah's FYP\Black42_smi.jpg		1	nose		2	132	526	1	13	9	C:\Hannah's FYP\Black24_smi.jpg		1	nose		1	131	841	2	13	10	C:\Hannah's FYP\White25_smi.jpg		2	forehead		2	212	375	1	13	11	C:\Hannah's FYP\White24_smi.jpg		2	nose		1	231	1073	1	03	12	C:\Hannah's FYP\White46_smi.jpg		2	nose		2	232	398	1	13	13	C:\Hannah's FYP\Black18_smi.jpg		1	nose		1	131	391	1	03	14	C:\Hannah's FYP\Black21_smi.jpg		1	nose		1	131	1200	1	03	15	C:\Hannah's FYP\White3_smi.jpg		2	forehead		1	211	302	2	13	16	C:\Hannah's FYP\Black8_smi.jpg		1	forehead		1	111	595	2	13	17	C:\Hannah's FYP\White12_smi.jpg		2	eyes		1	221	2172	1	03	18	C:\Hannah's FYP\Black12_smi.jpg		1	eyes		1	121	568	2	13	19	C:\Hannah's FYP\Black7_smi.jpg		1	forehead		1	111	385	2	13	20	C:\Hannah's FYP\White21_smi.jpg		2	nose		1	231	322	2	13	21	C:\Hannah's FYP\Black43_smi.jpg		1	nose		2	132	702	1	13	22	C:\Hannah's FYP\White14_smi.jpg		2	eyes		1	221	930	2	13	23	C:\Hannah's FYP\White41_smi.jpg		2	nose		2	232	460	1	13	24	C:\Hannah's FYP\White9_smi.jpg		2	eyes		1	221	907	2	13	25	C:\Hannah's FYP\White8_smi.jpg		2	forehead		1	211	574	2	13	26	C:\Hannah's FYP\Black27_smi.jpg		1	forehead		2	112	815	1	13	27	C:\Hannah's FYP\White20_smi.jpg		2	nose		1	231	990	1	03	28	C:\Hannah's FYP\White6_smi.jpg		2	forehead		1	211	893	1	03	29	C:\Hannah's FYP\Black45_smi.jpg		1	nose		2	132	240	2	03	30	C:\Hannah's FYP\White34_smi.jpg		2	eyes		2	222	457	1	13	31	C:\Hannah's FYP\White11_smi.jpg		2	eyes		1	221	1175	1	03	32	C:\Hannah's FYP\Black36_smi.jpg		1	eyes		2	122	1110	1	13	33	C:\Hannah's FYP\White42_smi.jpg		2	nose		2	232	473	1	13	34	C:\Hannah's FYP\Black3_smi.jpg		1	forehead		1	111	799	2	13	35	C:\Hannah's FYP\White26_smi.jpg		2	forehead		2	212	439	1	13	36	C:\Hannah's FYP\Black14_smi.jpg		1	eyes		1	121	758	2	13	37	C:\Hannah's FYP\Black33_smi.jpg		1	eyes		2	122	1120	1	13	38	C:\Hannah's FYP\White43_smi.jpg		2	nose		2	232	450	1	13	39	C:\Hannah's FYP\Black40_smi.jpg		1	eyes		2	122	440	1	13	40	C:\Hannah's FYP\Black16_smi.jpg		1	eyes		1	121	1519	2	13	41	C:\Hannah's FYP\Black19_smi.jpg		1	nose		1	131	1072	2	13	42	C:\Hannah's FYP\White19_smi.jpg		2	nose		1	231	860	2	13	43	C:\Hannah's FYP\Black28_smi.jpg		1	forehead		2	112	689	1	13	44	C:\Hannah's FYP\Black34_smi.jpg		1	eyes		2	122	957	1	13	45	C:\Hannah's FYP\Black44_smi.jpg		1	nose		2	132	374	2	03	46	C:\Hannah's FYP\White39_smi.jpg		2	eyes		2	222	511	1	13	47	C:\Hannah's FYP\White31_smi.jpg		2	forehead		2	212	1692	2	03	48	C:\Hannah's FYP\Black17_smi.jpg		1	nose		1	131	509	2	13	49	C:\Hannah's FYP\Black1_smi.jpg		1	forehead		1	111	386	2	13	50	C:\Hannah's FYP\White18_smi.jpg		2	nose		1	231	691	1	03	51	C:\Hannah's FYP\Black10_smi.jpg		1	eyes		1	121	656	1	03	52	C:\Hannah's FYP\White44_smi.jpg		2	nose		2	232	486	1	13	53	C:\Hannah's FYP\White5_smi.jpg		2	forehead		1	211	643	1	03	54	C:\Hannah's FYP\Black6_smi.jpg		1	forehead		1	111	1273	1	03	55	C:\Hannah's FYP\White36_smi.jpg		2	eyes		2	222	757	2	03	56	C:\Hannah's FYP\Black25_smi.jpg		1	forehead		2	112	358	2	03	57	C:\Hannah's FYP\White48_smi.jpg		2	nose		2	232	929	2	03	58	C:\Hannah's FYP\Black23_smi.jpg		1	nose		1	131	348	1	03	59	C:\Hannah's FYP\White16_smi.jpg		2	eyes		1	221	463	2	13	60	C:\Hannah's FYP\Black26_smi.jpg		1	forehead		2	112	534	1	13	61	C:\Hannah's FYP\White28_smi.jpg		2	forehead		2	212	610	1	13	62	C:\Hannah's FYP\Black11_smi.jpg		1	eyes		1	121	5938	1	03	63	C:\Hannah's FYP\White30_smi.jpg		2	forehead		2	212	3517	2	03	64	C:\Hannah's FYP\Black20_smi.jpg		1	nose		1	131	600	2	13	65	C:\Hannah's FYP\Black22_smi.jpg		1	nose		1	131	384	1	03	66	C:\Hannah's FYP\White4_smi.jpg		2	forehead		1	211	2353	2	13	67	C:\Hannah's FYP\Black29_smi.jpg		1	forehead		2	112	390	1	13	68	C:\Hannah's FYP\White37_smi.jpg		2	eyes		2	222	824	2	03	69	C:\Hannah's FYP\White33_smi.jpg		2	eyes		2	222	863	2	03	70	C:\Hannah's FYP\White1_smi.jpg		2	forehead		1	211	356	2	13	71	C:\Hannah's FYP\White22_smi.jpg		2	nose		1	231	1855	2	13	72	C:\Hannah's FYP\White40_smi.jpg		2	eyes		2	222	418	2	03	73	C:\Hannah's FYP\Black5_smi.jpg		1	forehead		1	111	138	2	13	74	C:\Hannah's FYP\Black15_smi.jpg		1	eyes		1	121	174	2	13	75	C:\Hannah's FYP\Black4_smi.jpg		1	forehead		1	111	928	2	13	76	C:\Hannah's FYP\Black46_smi.jpg		1	nose		2	132	666	1	13	77	C:\Hannah's FYP\White47_smi.jpg		2	nose		2	232	728	2	03	78	C:\Hannah's FYP\Black39_smi.jpg		1	eyes		2	122	411	1	13	79	C:\Hannah's FYP\Black30_smi.jpg		1	forehead		2	112	219	2	03	80	C:\Hannah's FYP\White10_smi.jpg		2	eyes		1	221	523	2	13	81	C:\Hannah's FYP\White7_smi.jpg		2	forehead		1	211	142	1	03	82	C:\Hannah's FYP\Black31_smi.jpg		1	forehead		2	112	2323	2	03	83	C:\Hannah's FYP\Black37_smi.jpg		1	eyes		2	122	504	1	13	84	C:\Hannah's FYP\Black47_smi.jpg		1	nose		2	132	452	2	03	85	C:\Hannah's FYP\Black38_smi.jpg		1	eyes		2	122	795	2	03	86	C:\Hannah's FYP\White23_smi.jpg		2	nose		1	231	443	2	13	87	C:\Hannah's FYP\White35_smi.jpg		2	eyes		2	222	634	2	03	88	C:\Hannah's FYP\Black13_smi.jpg		1	eyes		1	121	49	2	13	89	C:\Hannah's FYP\Black32_smi.jpg		1	forehead		2	112	840	2	03	90	C:\Hannah's FYP\White17_smi.jpg		2	nose		1	231	142	2	13	91	C:\Hannah's FYP\Black35_smi.jpg		1	eyes		2	122	530	2	03	92	C:\Hannah's FYP\White2_smi.jpg		2	forehead		1	211	318	1	03	93	C:\Hannah's FYP\White27_smi.jpg		2	forehead		2	212	73	2	03	94	C:\Hannah's FYP\White32_smi.jpg		2	forehead		2	212	569	2	03	95	C:\Hannah's FYP\Black9_smi.jpg		1	eyes		1	121	162	2	13	96	C:\Hannah's FYP\White29_smi.jpg		2	forehead		2	212	573	2	0