Block	Trial	FaceFilename	WordFilename	Race	Fix	WordValence	Familiar	Condition	RT	Key	Error1	1		love			2			1482	2	1	2		pest			1			1012	1	1	3		smile			2			658	2	1	4		paradise			2			1255	2	1	5		disgust			1			562	1	1	6		beauty			2			580	2	1	7		despair			1			605	1	1	8		joy			2			532	2	1	9		paradise			2			551	2	1	10		vomit			1			1312	1	1	11		garbage			1			553	1	1	12		pest			1			683	1	1	13		love			2			575	2	1	14		beauty			2			544	2	1	15		vacation			2			706	2	1	16		garbage			1			509	1	1	17		poison			1			664	1	1	18		disgust			1			645	1	1	19		romance			2			619	2	1	20		sewage			1			618	1	1	21		cockroach			1			1136	1	1	22		romance			2			1168	2	1	23		smile			2			520	2	1	24		joy			2			435	2	1	25		sewage			1			497	1	1	26		vacation			2			918	2	1	27		cockroach			1			536	1	1	28		vomit			1			562	1	1	29		despair			1			739	1	1	30		success			2			549	2	1	31		success			2			471	2	1	32		poison			1			532	1	2	1	C:\Hannah's FYP\White10_neu.jpg	disgust	2	forehead	1		211	1218	1	02	2	C:\Hannah's FYP\Black8_neu.jpg	paradise	1	forehead	2		112	1231	2	02	3	C:\Hannah's FYP\Black14_neu.jpg	pest	1	forehead	1		111	836	1	02	4	C:\Hannah's FYP\Black5_neu.jpg	success	1	forehead	2		112	563	2	02	5	C:\Hannah's FYP\White16_neu.jpg	pest	2	forehead	1		211	805	1	02	6	C:\Hannah's FYP\White4_neu.jpg	vacation	2	forehead	2		212	997	2	02	7	C:\Hannah's FYP\Black14_neu.jpg	paradise	1	forehead	2		112	693	2	02	8	C:\Hannah's FYP\Black22_neu.jpg	disgust	1	forehead	1		111	559	1	02	9	C:\Hannah's FYP\Black24_neu.jpg	beauty	1	forehead	2		112	1166	2	02	10	C:\Hannah's FYP\White13_neu.jpg	sewage	2	forehead	1		211	487	1	02	11	C:\Hannah's FYP\White15_neu.jpg	joy	2	forehead	2		212	932	2	02	12	C:\Hannah's FYP\White16_neu.jpg	disgust	2	forehead	1		211	599	1	02	13	C:\Hannah's FYP\Black14_neu.jpg	romance	1	forehead	2		112	896	2	02	14	C:\Hannah's FYP\Black10_neu.jpg	despair	1	forehead	1		111	884	2	12	15	C:\Hannah's FYP\White9_neu.jpg	joy	2	forehead	2		212	769	2	02	16	C:\Hannah's FYP\Black7_neu.jpg	disgust	1	forehead	1		111	688	1	02	17	C:\Hannah's FYP\White20_neu.jpg	sewage	2	forehead	1		211	585	1	02	18	C:\Hannah's FYP\Black18_neu.jpg	joy	1	forehead	2		112	818	2	02	19	C:\Hannah's FYP\White18_neu.jpg	beauty	2	forehead	2		212	774	2	02	20	C:\Hannah's FYP\Black16_neu.jpg	love	1	forehead	2		112	1007	2	02	21	C:\Hannah's FYP\White24_neu.jpg	pest	2	forehead	1		211	758	1	02	22	C:\Hannah's FYP\Black15_neu.jpg	garbage	1	forehead	1		111	640	1	02	23	C:\Hannah's FYP\Black13_neu.jpg	cockroach	1	forehead	1		111	687	1	02	24	C:\Hannah's FYP\White24_neu.jpg	love	2	forehead	2		212	755	2	02	25	C:\Hannah's FYP\Black21_neu.jpg	romance	1	forehead	2		112	602	2	02	26	C:\Hannah's FYP\Black19_neu.jpg	vacation	1	forehead	2		112	1066	2	02	27	C:\Hannah's FYP\Black11_neu.jpg	disgust	1	forehead	1		111	664	1	02	28	C:\Hannah's FYP\Black3_neu.jpg	vomit	1	forehead	1		111	908	1	02	29	C:\Hannah's FYP\Black3_neu.jpg	love	1	forehead	2		112	2486	2	02	30	C:\Hannah's FYP\Black10_neu.jpg	garbage	1	forehead	1		111	886	1	02	31	C:\Hannah's FYP\Black12_neu.jpg	sewage	1	forehead	1		111	955	1	02	32	C:\Hannah's FYP\Black11_neu.jpg	vomit	1	forehead	1		111	1220	1	02	33	C:\Hannah's FYP\White5_neu.jpg	cockroach	2	forehead	1		211	1322	1	02	34	C:\Hannah's FYP\Black24_neu.jpg	poison	1	forehead	1		111	672	1	02	35	C:\Hannah's FYP\Black15_neu.jpg	smile	1	forehead	2		112	942	2	02	36	C:\Hannah's FYP\Black9_neu.jpg	paradise	1	forehead	2		112	1752	2	02	37	C:\Hannah's FYP\Black16_neu.jpg	beauty	1	forehead	2		112	903	2	02	38	C:\Hannah's FYP\White15_neu.jpg	vomit	2	forehead	1		211	619	1	02	39	C:\Hannah's FYP\Black15_neu.jpg	success	1	forehead	2		112	1082	2	02	40	C:\Hannah's FYP\Black21_neu.jpg	vomit	1	forehead	1		111	691	1	02	41	C:\Hannah's FYP\White6_neu.jpg	love	2	forehead	2		212	528	2	02	42	C:\Hannah's FYP\White4_neu.jpg	poison	2	forehead	1		211	628	1	02	43	C:\Hannah's FYP\White10_neu.jpg	vacation	2	forehead	2		212	763	2	02	44	C:\Hannah's FYP\Black18_neu.jpg	paradise	1	forehead	2		112	805	2	02	45	C:\Hannah's FYP\Black6_neu.jpg	joy	1	forehead	2		112	1101	2	02	46	C:\Hannah's FYP\White18_neu.jpg	disgust	2	forehead	1		211	589	1	02	47	C:\Hannah's FYP\Black24_neu.jpg	cockroach	1	forehead	1		111	651	1	02	48	C:\Hannah's FYP\Black5_neu.jpg	poison	1	forehead	1		111	993	1	02	49	C:\Hannah's FYP\Black4_neu.jpg	sewage	1	forehead	1		111	1129	1	02	50	C:\Hannah's FYP\White12_neu.jpg	beauty	2	forehead	2		212	659	2	02	51	C:\Hannah's FYP\White11_neu.jpg	success	2	forehead	2		212	905	2	02	52	C:\Hannah's FYP\White1_neu.jpg	beauty	2	forehead	2		212	1021	2	02	53	C:\Hannah's FYP\White14_neu.jpg	love	2	forehead	2		212	823	2	02	54	C:\Hannah's FYP\Black11_neu.jpg	vacation	1	forehead	2		112	1166	2	02	55	C:\Hannah's FYP\White12_neu.jpg	pest	2	forehead	1		211	743	1	02	56	C:\Hannah's FYP\Black20_neu.jpg	garbage	1	forehead	1		111	717	1	02	57	C:\Hannah's FYP\Black24_neu.jpg	love	1	forehead	2		112	782	2	02	58	C:\Hannah's FYP\White6_neu.jpg	disgust	2	forehead	1		211	703	1	02	59	C:\Hannah's FYP\Black13_neu.jpg	joy	1	forehead	2		112	963	2	02	60	C:\Hannah's FYP\Black16_neu.jpg	disgust	1	forehead	1		111	636	1	02	61	C:\Hannah's FYP\White22_neu.jpg	romance	2	forehead	2		212	739	2	02	62	C:\Hannah's FYP\White19_neu.jpg	garbage	2	forehead	1		211	611	1	02	63	C:\Hannah's FYP\White23_neu.jpg	vacation	2	forehead	2		212	855	2	02	64	C:\Hannah's FYP\White17_neu.jpg	despair	2	forehead	1		211	508	1	02	65	C:\Hannah's FYP\Black20_neu.jpg	smile	1	forehead	2		112	541	2	02	66	C:\Hannah's FYP\Black21_neu.jpg	sewage	1	forehead	1		111	580	1	02	67	C:\Hannah's FYP\White13_neu.jpg	poison	2	forehead	1		211	670	1	02	68	C:\Hannah's FYP\White22_neu.jpg	paradise	2	forehead	2		212	1108	2	02	69	C:\Hannah's FYP\White8_neu.jpg	vomit	2	forehead	1		211	1150	1	02	70	C:\Hannah's FYP\White19_neu.jpg	paradise	2	forehead	2		212	565	2	02	71	C:\Hannah's FYP\White12_neu.jpg	garbage	2	forehead	1		211	559	1	02	72	C:\Hannah's FYP\White5_neu.jpg	success	2	forehead	2		212	522	2	02	73	C:\Hannah's FYP\Black10_neu.jpg	smile	1	forehead	2		112	494	2	02	74	C:\Hannah's FYP\White20_neu.jpg	success	2	forehead	2		212	496	2	02	75	C:\Hannah's FYP\White19_neu.jpg	romance	2	forehead	2		212	634	2	02	76	C:\Hannah's FYP\Black4_neu.jpg	beauty	1	forehead	2		112	569	2	02	77	C:\Hannah's FYP\Black5_neu.jpg	garbage	1	forehead	1		111	547	1	02	78	C:\Hannah's FYP\Black12_neu.jpg	beauty	1	forehead	2		112	790	2	02	79	C:\Hannah's FYP\White1_neu.jpg	despair	2	forehead	1		211	534	1	02	80	C:\Hannah's FYP\White10_neu.jpg	paradise	2	forehead	2		212	569	2	02	81	C:\Hannah's FYP\White9_neu.jpg	poison	2	forehead	1		211	603	1	02	82	C:\Hannah's FYP\Black11_neu.jpg	love	1	forehead	2		112	556	2	02	83	C:\Hannah's FYP\White24_neu.jpg	despair	2	forehead	1		211	550	1	02	84	C:\Hannah's FYP\Black8_neu.jpg	sewage	1	forehead	1		111	598	1	02	85	C:\Hannah's FYP\White8_neu.jpg	paradise	2	forehead	2		212	815	2	02	86	C:\Hannah's FYP\White21_neu.jpg	success	2	forehead	2		212	564	2	02	87	C:\Hannah's FYP\Black17_neu.jpg	vomit	1	forehead	1		111	596	1	02	88	C:\Hannah's FYP\White21_neu.jpg	smile	2	forehead	2		212	1065	2	02	89	C:\Hannah's FYP\White2_neu.jpg	love	2	forehead	2		212	710	2	02	90	C:\Hannah's FYP\Black4_neu.jpg	smile	1	forehead	2		112	522	2	02	91	C:\Hannah's FYP\Black23_neu.jpg	pest	1	forehead	1		111	587	1	02	92	C:\Hannah's FYP\White15_neu.jpg	garbage	2	forehead	1		211	572	1	02	93	C:\Hannah's FYP\Black3_neu.jpg	garbage	1	forehead	1		111	533	1	02	94	C:\Hannah's FYP\Black7_neu.jpg	cockroach	1	forehead	1		111	630	1	02	95	C:\Hannah's FYP\White1_neu.jpg	success	2	forehead	2		212	614	2	02	96	C:\Hannah's FYP\Black4_neu.jpg	pest	1	forehead	1		111	639	1	02	97	C:\Hannah's FYP\Black3_neu.jpg	success	1	forehead	2		112	548	2	02	98	C:\Hannah's FYP\White7_neu.jpg	beauty	2	forehead	2		212	631	2	02	99	C:\Hannah's FYP\White18_neu.jpg	vacation	2	forehead	2		212	779	2	02	100	C:\Hannah's FYP\White7_neu.jpg	pest	2	forehead	1		211	668	1	02	101	C:\Hannah's FYP\White16_neu.jpg	beauty	2	forehead	2		212	514	2	02	102	C:\Hannah's FYP\White23_neu.jpg	sewage	2	forehead	1		211	554	1	02	103	C:\Hannah's FYP\Black21_neu.jpg	vacation	1	forehead	2		112	569	2	02	104	C:\Hannah's FYP\Black12_neu.jpg	joy	1	forehead	2		112	483	2	02	105	C:\Hannah's FYP\White13_neu.jpg	paradise	2	forehead	2		212	609	2	02	106	C:\Hannah's FYP\White16_neu.jpg	success	2	forehead	2		212	489	2	02	107	C:\Hannah's FYP\Black7_neu.jpg	love	1	forehead	2		112	524	2	02	108	C:\Hannah's FYP\White10_neu.jpg	despair	2	forehead	1		211	440	1	02	109	C:\Hannah's FYP\White6_neu.jpg	vacation	2	forehead	2		212	520	2	02	110	C:\Hannah's FYP\White7_neu.jpg	garbage	2	forehead	1		211	468	2	12	111	C:\Hannah's FYP\Black18_neu.jpg	despair	1	forehead	1		111	522	1	02	112	C:\Hannah's FYP\Black19_neu.jpg	romance	1	forehead	2		112	862	2	02	113	C:\Hannah's FYP\Black16_neu.jpg	despair	1	forehead	1		111	499	1	02	114	C:\Hannah's FYP\White11_neu.jpg	romance	2	forehead	2		212	816	2	02	115	C:\Hannah's FYP\White19_neu.jpg	cockroach	2	forehead	1		211	533	1	02	116	C:\Hannah's FYP\Black9_neu.jpg	success	1	forehead	2		112	593	2	02	117	C:\Hannah's FYP\White21_neu.jpg	cockroach	2	forehead	1		211	550	1	02	118	C:\Hannah's FYP\White18_neu.jpg	poison	2	forehead	1		211	629	1	02	119	C:\Hannah's FYP\White4_neu.jpg	smile	2	forehead	2		212	932	2	02	120	C:\Hannah's FYP\Black7_neu.jpg	beauty	1	forehead	2		112	933	2	02	121	C:\Hannah's FYP\Black2_neu.jpg	despair	1	forehead	1		111	584	1	02	122	C:\Hannah's FYP\White8_neu.jpg	poison	2	forehead	1		211	809	1	02	123	C:\Hannah's FYP\Black9_neu.jpg	cockroach	1	forehead	1		111	641	1	02	124	C:\Hannah's FYP\Black23_neu.jpg	paradise	1	forehead	2		112	597	2	02	125	C:\Hannah's FYP\Black9_neu.jpg	poison	1	forehead	1		111	494	1	02	126	C:\Hannah's FYP\White20_neu.jpg	vomit	2	forehead	1		211	504	1	02	127	C:\Hannah's FYP\White3_neu.jpg	romance	2	forehead	2		212	677	2	02	128	C:\Hannah's FYP\White11_neu.jpg	cockroach	2	forehead	1		211	522	1	02	129	C:\Hannah's FYP\Black20_neu.jpg	sewage	1	forehead	1		111	498	1	02	130	C:\Hannah's FYP\White13_neu.jpg	vacation	2	forehead	2		212	959	2	02	131	C:\Hannah's FYP\White7_neu.jpg	joy	2	forehead	2		212	656	2	02	132	C:\Hannah's FYP\White9_neu.jpg	love	2	forehead	2		212	447	2	02	133	C:\Hannah's FYP\Black2_neu.jpg	romance	1	forehead	2		112	574	2	02	134	C:\Hannah's FYP\White21_neu.jpg	vomit	2	forehead	1		211	508	1	02	135	C:\Hannah's FYP\White17_neu.jpg	joy	2	forehead	2		212	689	2	02	136	C:\Hannah's FYP\White17_neu.jpg	smile	2	forehead	2		212	590	2	02	137	C:\Hannah's FYP\Black17_neu.jpg	poison	1	forehead	1		111	557	1	02	138	C:\Hannah's FYP\White5_neu.jpg	romance	2	forehead	2		212	631	2	02	139	C:\Hannah's FYP\White15_neu.jpg	smile	2	forehead	2		212	647	2	02	140	C:\Hannah's FYP\White3_neu.jpg	paradise	2	forehead	2		212	918	2	02	141	C:\Hannah's FYP\Black6_neu.jpg	pest	1	forehead	1		111	905	1	02	142	C:\Hannah's FYP\Black13_neu.jpg	sewage	1	forehead	1		111	620	1	02	143	C:\Hannah's FYP\White2_neu.jpg	joy	2	forehead	2		212	628	2	02	144	C:\Hannah's FYP\Black22_neu.jpg	success	1	forehead	2		112	529	2	02	145	C:\Hannah's FYP\White4_neu.jpg	pest	2	forehead	1		211	533	1	02	146	C:\Hannah's FYP\White2_neu.jpg	garbage	2	forehead	1		211	600	1	02	147	C:\Hannah's FYP\Black10_neu.jpg	romance	1	forehead	2		112	553	2	02	148	C:\Hannah's FYP\White14_neu.jpg	cockroach	2	forehead	1		211	576	1	02	149	C:\Hannah's FYP\White20_neu.jpg	love	2	forehead	2		212	518	2	02	150	C:\Hannah's FYP\White12_neu.jpg	smile	2	forehead	2		212	562	2	02	151	C:\Hannah's FYP\Black17_neu.jpg	success	1	forehead	2		112	530	2	02	152	C:\Hannah's FYP\Black8_neu.jpg	vomit	1	forehead	1		111	588	1	02	153	C:\Hannah's FYP\Black8_neu.jpg	vacation	1	forehead	2		112	571	2	02	154	C:\Hannah's FYP\Black5_neu.jpg	romance	1	forehead	2		112	965	2	02	155	C:\Hannah's FYP\White8_neu.jpg	smile	2	forehead	2		212	670	2	02	156	C:\Hannah's FYP\White23_neu.jpg	beauty	2	forehead	2		212	727	2	02	157	C:\Hannah's FYP\White3_neu.jpg	disgust	2	forehead	1		211	538	1	02	158	C:\Hannah's FYP\White6_neu.jpg	sewage	2	forehead	1		211	790	1	02	159	C:\Hannah's FYP\Black2_neu.jpg	joy	1	forehead	2		112	511	2	02	160	C:\Hannah's FYP\Black12_neu.jpg	pest	1	forehead	1		111	595	1	02	161	C:\Hannah's FYP\Black22_neu.jpg	garbage	1	forehead	1		111	497	1	02	162	C:\Hannah's FYP\Black1_neu.jpg	disgust	1	forehead	1		111	487	1	02	163	C:\Hannah's FYP\White9_neu.jpg	vomit	2	forehead	1		211	564	1	02	164	C:\Hannah's FYP\Black13_neu.jpg	vacation	1	forehead	2		112	975	2	02	165	C:\Hannah's FYP\Black1_neu.jpg	cockroach	1	forehead	1		111	1359	1	02	166	C:\Hannah's FYP\Black1_neu.jpg	vacation	1	forehead	2		112	567	2	02	167	C:\Hannah's FYP\White2_neu.jpg	sewage	2	forehead	1		211	857	1	02	168	C:\Hannah's FYP\White5_neu.jpg	despair	2	forehead	1		211	1015	1	02	169	C:\Hannah's FYP\White22_neu.jpg	garbage	2	forehead	1		211	574	1	02	170	C:\Hannah's FYP\Black6_neu.jpg	smile	1	forehead	2		112	503	2	02	171	C:\Hannah's FYP\Black14_neu.jpg	poison	1	forehead	1		111	580	1	02	172	C:\Hannah's FYP\White22_neu.jpg	disgust	2	forehead	1		211	454	1	02	173	C:\Hannah's FYP\Black20_neu.jpg	beauty	1	forehead	2		112	512	2	02	174	C:\Hannah's FYP\White11_neu.jpg	sewage	2	forehead	1		211	494	1	02	175	C:\Hannah's FYP\Black22_neu.jpg	smile	1	forehead	2		112	480	2	02	176	C:\Hannah's FYP\White3_neu.jpg	vomit	2	forehead	1		211	398	1	02	177	C:\Hannah's FYP\Black18_neu.jpg	disgust	1	forehead	1		111	624	1	02	178	C:\Hannah's FYP\White14_neu.jpg	despair	2	forehead	1		211	492	1	02	179	C:\Hannah's FYP\Black15_neu.jpg	vomit	1	forehead	1		111	569	1	02	180	C:\Hannah's FYP\Black19_neu.jpg	cockroach	1	forehead	1		111	683	1	02	181	C:\Hannah's FYP\Black2_neu.jpg	poison	1	forehead	1		111	1088	1	02	182	C:\Hannah's FYP\White17_neu.jpg	pest	2	forehead	1		211	476	1	02	183	C:\Hannah's FYP\Black19_neu.jpg	pest	1	forehead	1		111	522	1	02	184	C:\Hannah's FYP\White1_neu.jpg	cockroach	2	forehead	1		211	494	1	02	185	C:\Hannah's FYP\White23_neu.jpg	poison	2	forehead	1		211	471	1	02	186	C:\Hannah's FYP\White24_neu.jpg	joy	2	forehead	2		212	581	2	02	187	C:\Hannah's FYP\Black17_neu.jpg	love	1	forehead	2		112	1085	2	02	188	C:\Hannah's FYP\White14_neu.jpg	romance	2	forehead	2		212	613	2	02	189	C:\Hannah's FYP\Black1_neu.jpg	paradise	1	forehead	2		112	622	2	02	190	C:\Hannah's FYP\Black6_neu.jpg	despair	1	forehead	1		111	877	1	02	191	C:\Hannah's FYP\Black23_neu.jpg	joy	1	forehead	2		112	503	2	02	192	C:\Hannah's FYP\Black23_neu.jpg	despair	1	forehead	1		111	466	1	03	1	C:\Hannah's FYP\Black9_smi.jpg		1	eyes		1	121	2130	1	03	2	C:\Hannah's FYP\Black23_smi.jpg		1	nose		1	131	697	1	03	3	C:\Hannah's FYP\Black38_smi.jpg		1	eyes		2	122	678	1	13	4	C:\Hannah's FYP\White18_smi.jpg		2	nose		1	231	420	2	13	5	C:\Hannah's FYP\White29_smi.jpg		2	forehead		2	212	404	2	03	6	C:\Hannah's FYP\Black35_smi.jpg		1	eyes		2	122	397	2	03	7	C:\Hannah's FYP\White13_smi.jpg		2	eyes		1	221	303	2	13	8	C:\Hannah's FYP\White10_smi.jpg		2	eyes		1	221	716	2	13	9	C:\Hannah's FYP\White17_smi.jpg		2	nose		1	231	1008	1	03	10	C:\Hannah's FYP\Black5_smi.jpg		1	forehead		1	111	535	2	13	11	C:\Hannah's FYP\White22_smi.jpg		2	nose		1	231	1074	1	03	12	C:\Hannah's FYP\Black28_smi.jpg		1	forehead		2	112	1710	1	13	13	C:\Hannah's FYP\White47_smi.jpg		2	nose		2	232	383	2	03	14	C:\Hannah's FYP\Black22_smi.jpg		1	nose		1	131	1097	1	03	15	C:\Hannah's FYP\Black10_smi.jpg		1	eyes		1	121	661	1	03	16	C:\Hannah's FYP\Black43_smi.jpg		1	nose		2	132	547	2	03	17	C:\Hannah's FYP\Black41_smi.jpg		1	nose		2	132	1606	2	03	18	C:\Hannah's FYP\White1_smi.jpg		2	forehead		1	211	1443	2	13	19	C:\Hannah's FYP\Black30_smi.jpg		1	forehead		2	112	1904	2	03	20	C:\Hannah's FYP\Black29_smi.jpg		1	forehead		2	112	1161	2	03	21	C:\Hannah's FYP\White8_smi.jpg		2	forehead		1	211	554	2	13	22	C:\Hannah's FYP\White34_smi.jpg		2	eyes		2	222	492	2	03	23	C:\Hannah's FYP\Black21_smi.jpg		1	nose		1	131	577	2	13	24	C:\Hannah's FYP\White19_smi.jpg		2	nose		1	231	475	2	13	25	C:\Hannah's FYP\Black3_smi.jpg		1	forehead		1	111	673	2	13	26	C:\Hannah's FYP\White32_smi.jpg		2	forehead		2	212	647	2	03	27	C:\Hannah's FYP\White3_smi.jpg		2	forehead		1	211	2085	2	13	28	C:\Hannah's FYP\White35_smi.jpg		2	eyes		2	222	415	2	03	29	C:\Hannah's FYP\White30_smi.jpg		2	forehead		2	212	424	2	03	30	C:\Hannah's FYP\White46_smi.jpg		2	nose		2	232	744	2	03	31	C:\Hannah's FYP\White28_smi.jpg		2	forehead		2	212	420	2	03	32	C:\Hannah's FYP\Black18_smi.jpg		1	nose		1	131	868	1	03	33	C:\Hannah's FYP\White23_smi.jpg		2	nose		1	231	385	2	13	34	C:\Hannah's FYP\White37_smi.jpg		2	eyes		2	222	587	2	03	35	C:\Hannah's FYP\White7_smi.jpg		2	forehead		1	211	563	1	03	36	C:\Hannah's FYP\Black37_smi.jpg		1	eyes		2	122	942	2	03	37	C:\Hannah's FYP\Black4_smi.jpg		1	forehead		1	111	736	1	03	38	C:\Hannah's FYP\Black6_smi.jpg		1	forehead		1	111	595	1	03	39	C:\Hannah's FYP\Black2_smi.jpg		1	forehead		1	111	980	2	13	40	C:\Hannah's FYP\White4_smi.jpg		2	forehead		1	211	2396	2	13	41	C:\Hannah's FYP\Black8_smi.jpg		1	forehead		1	111	480	1	03	42	C:\Hannah's FYP\Black19_smi.jpg		1	nose		1	131	1382	1	03	43	C:\Hannah's FYP\White48_smi.jpg		2	nose		2	232	309	2	03	44	C:\Hannah's FYP\Black44_smi.jpg		1	nose		2	132	443	1	13	45	C:\Hannah's FYP\White27_smi.jpg		2	forehead		2	212	426	2	03	46	C:\Hannah's FYP\Black16_smi.jpg		1	eyes		1	121	1586	1	03	47	C:\Hannah's FYP\White42_smi.jpg		2	nose		2	232	273	2	03	48	C:\Hannah's FYP\White43_smi.jpg		2	nose		2	232	536	2	03	49	C:\Hannah's FYP\Black46_smi.jpg		1	nose		2	132	435	2	03	50	C:\Hannah's FYP\Black39_smi.jpg		1	eyes		2	122	770	2	03	51	C:\Hannah's FYP\Black34_smi.jpg		1	eyes		2	122	555	2	03	52	C:\Hannah's FYP\Black40_smi.jpg		1	eyes		2	122	422	1	13	53	C:\Hannah's FYP\Black47_smi.jpg		1	nose		2	132	734	2	03	54	C:\Hannah's FYP\White26_smi.jpg		2	forehead		2	212	665	1	13	55	C:\Hannah's FYP\White6_smi.jpg		2	forehead		1	211	3175	2	13	56	C:\Hannah's FYP\Black7_smi.jpg		1	forehead		1	111	721	1	03	57	C:\Hannah's FYP\White11_smi.jpg		2	eyes		1	221	676	1	03	58	C:\Hannah's FYP\Black31_smi.jpg		1	forehead		2	112	514	2	03	59	C:\Hannah's FYP\White24_smi.jpg		2	nose		1	231	470	2	13	60	C:\Hannah's FYP\Black27_smi.jpg		1	forehead		2	112	1196	1	13	61	C:\Hannah's FYP\White15_smi.jpg		2	eyes		1	221	924	2	13	62	C:\Hannah's FYP\Black45_smi.jpg		1	nose		2	132	430	2	03	63	C:\Hannah's FYP\White36_smi.jpg		2	eyes		2	222	1486	2	03	64	C:\Hannah's FYP\White21_smi.jpg		2	nose		1	231	369	2	13	65	C:\Hannah's FYP\White33_smi.jpg		2	eyes		2	222	507	1	13	66	C:\Hannah's FYP\White38_smi.jpg		2	eyes		2	222	392	2	03	67	C:\Hannah's FYP\White9_smi.jpg		2	eyes		1	221	1145	2	13	68	C:\Hannah's FYP\Black25_smi.jpg		1	forehead		2	112	923	2	03	69	C:\Hannah's FYP\Black11_smi.jpg		1	eyes		1	121	733	1	03	70	C:\Hannah's FYP\Black20_smi.jpg		1	nose		1	131	601	1	03	71	C:\Hannah's FYP\Black13_smi.jpg		1	eyes		1	121	969	1	03	72	C:\Hannah's FYP\White40_smi.jpg		2	eyes		2	222	610	2	03	73	C:\Hannah's FYP\White41_smi.jpg		2	nose		2	232	1250	2	03	74	C:\Hannah's FYP\White45_smi.jpg		2	nose		2	232	551	2	03	75	C:\Hannah's FYP\White5_smi.jpg		2	forehead		1	211	857	2	13	76	C:\Hannah's FYP\Black33_smi.jpg		1	eyes		2	122	583	2	03	77	C:\Hannah's FYP\Black48_smi.jpg		1	nose		2	132	569	2	03	78	C:\Hannah's FYP\White14_smi.jpg		2	eyes		1	221	395	2	13	79	C:\Hannah's FYP\White12_smi.jpg		2	eyes		1	221	428	2	13	80	C:\Hannah's FYP\White44_smi.jpg		2	nose		2	232	316	2	03	81	C:\Hannah's FYP\Black14_smi.jpg		1	eyes		1	121	593	1	03	82	C:\Hannah's FYP\Black24_smi.jpg		1	nose		1	131	690	2	13	83	C:\Hannah's FYP\White16_smi.jpg		2	eyes		1	221	343	2	13	84	C:\Hannah's FYP\White20_smi.jpg		2	nose		1	231	947	1	03	85	C:\Hannah's FYP\Black42_smi.jpg		1	nose		2	132	1044	2	03	86	C:\Hannah's FYP\Black36_smi.jpg		1	eyes		2	122	1434	2	03	87	C:\Hannah's FYP\Black32_smi.jpg		1	forehead		2	112	847	1	13	88	C:\Hannah's FYP\Black1_smi.jpg		1	forehead		1	111	814	2	13	89	C:\Hannah's FYP\Black17_smi.jpg		1	nose		1	131	685	2	13	90	C:\Hannah's FYP\White39_smi.jpg		2	eyes		2	222	810	2	03	91	C:\Hannah's FYP\White31_smi.jpg		2	forehead		2	212	1010	2	03	92	C:\Hannah's FYP\Black15_smi.jpg		1	eyes		1	121	689	1	03	93	C:\Hannah's FYP\White2_smi.jpg		2	forehead		1	211	1342	1	03	94	C:\Hannah's FYP\Black12_smi.jpg		1	eyes		1	121	775	1	03	95	C:\Hannah's FYP\White25_smi.jpg		2	forehead		2	212	480	2	03	96	C:\Hannah's FYP\Black26_smi.jpg		1	forehead		2	112	814	2	0