Block	Trial	FaceFilename	WordFilename	Race	Fix	WordValence	Familiar	Condition	RT	Key	Error1	1		joy			2			1038	2	1	2		pest			1			866	1	1	3		success			2			583	2	1	4		smile			2			560	2	1	5		garbage			1			609	1	1	6		smile			2			464	2	1	7		beauty			2			550	2	1	8		romance			2			512	2	1	9		sewage			1			564	1	1	10		paradise			2			533	2	1	11		disgust			1			568	1	1	12		disgust			1			1360	1	1	13		romance			2			519	2	1	14		love			2			626	2	1	15		despair			1			633	1	1	16		cockroach			1			775	1	1	17		poison			1			623	1	1	18		beauty			2			542	2	1	19		success			2			528	2	1	20		love			2			507	2	1	21		vomit			1			566	1	1	22		vomit			1			592	1	1	23		sewage			1			784	1	1	24		paradise			2			504	2	1	25		cockroach			1			579	1	1	26		garbage			1			1156	1	1	27		despair			1			724	1	1	28		vacation			2			582	2	1	29		joy			2			662	2	1	30		pest			1			588	1	1	31		poison			1			636	1	1	32		vacation			2			913	2	2	1	C:\Hannah's FYP\White10_neu.jpg	despair	2	forehead	1		211	4566	1	02	2	C:\Hannah's FYP\Black17_neu.jpg	despair	1	forehead	1		111	498	1	02	3	C:\Hannah's FYP\Black13_neu.jpg	romance	1	forehead	2		112	3776	1	12	4	C:\Hannah's FYP\Black4_neu.jpg	love	1	forehead	2		112	1417	2	02	5	C:\Hannah's FYP\Black18_neu.jpg	success	1	forehead	2		112	2030	1	12	6	C:\Hannah's FYP\Black22_neu.jpg	vomit	1	forehead	1		111	375	1	02	7	C:\Hannah's FYP\White2_neu.jpg	love	2	forehead	2		212	865	1	12	8	C:\Hannah's FYP\Black17_neu.jpg	smile	1	forehead	2		112	365	1	12	9	C:\Hannah's FYP\Black8_neu.jpg	beauty	1	forehead	2		112	942	2	02	10	C:\Hannah's FYP\White22_neu.jpg	love	2	forehead	2		212	656	2	02	11	C:\Hannah's FYP\Black23_neu.jpg	poison	1	forehead	1		111	395	1	02	12	C:\Hannah's FYP\White22_neu.jpg	smile	2	forehead	2		212	381	2	02	13	C:\Hannah's FYP\White1_neu.jpg	beauty	2	forehead	2		212	519	2	02	14	C:\Hannah's FYP\Black23_neu.jpg	vacation	1	forehead	2		112	376	1	12	15	C:\Hannah's FYP\Black18_neu.jpg	joy	1	forehead	2		112	338	1	12	16	C:\Hannah's FYP\Black4_neu.jpg	cockroach	1	forehead	1		111	334	2	12	17	C:\Hannah's FYP\Black9_neu.jpg	cockroach	1	forehead	1		111	322	2	12	18	C:\Hannah's FYP\Black21_neu.jpg	smile	1	forehead	2		112	459	1	12	19	C:\Hannah's FYP\White11_neu.jpg	poison	2	forehead	1		211	306	2	12	20	C:\Hannah's FYP\White9_neu.jpg	beauty	2	forehead	2		212	159	2	02	21	C:\Hannah's FYP\White23_neu.jpg	garbage	2	forehead	1		211	238	1	02	22	C:\Hannah's FYP\Black3_neu.jpg	success	1	forehead	2		112	389	1	12	23	C:\Hannah's FYP\White17_neu.jpg	success	2	forehead	2		212	191	1	12	24	C:\Hannah's FYP\Black2_neu.jpg	joy	1	forehead	2		112	241	2	02	25	C:\Hannah's FYP\White17_neu.jpg	garbage	2	forehead	1		211	201	1	02	26	C:\Hannah's FYP\White20_neu.jpg	poison	2	forehead	1		211	223	1	02	27	C:\Hannah's FYP\Black5_neu.jpg	poison	1	forehead	1		111	616	2	12	28	C:\Hannah's FYP\White16_neu.jpg	pest	2	forehead	1		211	536	1	02	29	C:\Hannah's FYP\Black11_neu.jpg	success	1	forehead	2		112	1147	2	02	30	C:\Hannah's FYP\Black16_neu.jpg	vacation	1	forehead	2		112	365	1	12	31	C:\Hannah's FYP\Black18_neu.jpg	pest	1	forehead	1		111	208	1	02	32	C:\Hannah's FYP\White3_neu.jpg	vomit	2	forehead	1		211	193	2	12	33	C:\Hannah's FYP\White4_neu.jpg	success	2	forehead	2		212	540	1	12	34	C:\Hannah's FYP\White16_neu.jpg	joy	2	forehead	2		212	407	1	12	35	C:\Hannah's FYP\White15_neu.jpg	sewage	2	forehead	1		211	240	1	02	36	C:\Hannah's FYP\White2_neu.jpg	smile	2	forehead	2		212	312	1	12	37	C:\Hannah's FYP\Black2_neu.jpg	despair	1	forehead	1		111	293	2	12	38	C:\Hannah's FYP\Black12_neu.jpg	disgust	1	forehead	1		111	187	1	02	39	C:\Hannah's FYP\Black24_neu.jpg	garbage	1	forehead	1		111	242	2	12	40	C:\Hannah's FYP\Black21_neu.jpg	success	1	forehead	2		112	247	1	12	41	C:\Hannah's FYP\White3_neu.jpg	vacation	2	forehead	2		212	231	2	02	42	C:\Hannah's FYP\Black1_neu.jpg	poison	1	forehead	1		111	336	2	12	43	C:\Hannah's FYP\White5_neu.jpg	vomit	2	forehead	1		211	260	1	02	44	C:\Hannah's FYP\Black5_neu.jpg	garbage	1	forehead	1		111	579	1	02	45	C:\Hannah's FYP\Black12_neu.jpg	beauty	1	forehead	2		112	653	1	12	46	C:\Hannah's FYP\Black13_neu.jpg	sewage	1	forehead	1		111	507	1	02	47	C:\Hannah's FYP\White5_neu.jpg	success	2	forehead	2		212	296	1	12	48	C:\Hannah's FYP\White11_neu.jpg	pest	2	forehead	1		211	150	1	02	49	C:\Hannah's FYP\White13_neu.jpg	smile	2	forehead	2		212	193	1	12	50	C:\Hannah's FYP\Black17_neu.jpg	paradise	1	forehead	2		112	161	1	12	51	C:\Hannah's FYP\Black24_neu.jpg	beauty	1	forehead	2		112	242	2	02	52	C:\Hannah's FYP\Black19_neu.jpg	disgust	1	forehead	1		111	194	2	12	53	C:\Hannah's FYP\Black4_neu.jpg	pest	1	forehead	1		111	188	2	12	54	C:\Hannah's FYP\White8_neu.jpg	romance	2	forehead	2		212	175	2	02	55	C:\Hannah's FYP\White13_neu.jpg	despair	2	forehead	1		211	178	1	02	56	C:\Hannah's FYP\White6_neu.jpg	cockroach	2	forehead	1		211	365	1	02	57	C:\Hannah's FYP\White15_neu.jpg	vacation	2	forehead	2		212	216	1	12	58	C:\Hannah's FYP\White10_neu.jpg	success	2	forehead	2		212	177	1	12	59	C:\Hannah's FYP\White7_neu.jpg	vacation	2	forehead	2		212	267	1	12	60	C:\Hannah's FYP\White20_neu.jpg	beauty	2	forehead	2		212	127	1	12	61	C:\Hannah's FYP\Black9_neu.jpg	romance	1	forehead	2		112	244	2	02	62	C:\Hannah's FYP\White14_neu.jpg	romance	2	forehead	2		212	346	1	12	63	C:\Hannah's FYP\Black4_neu.jpg	beauty	1	forehead	2		112	189	2	02	64	C:\Hannah's FYP\Black1_neu.jpg	paradise	1	forehead	2		112	224	2	02	65	C:\Hannah's FYP\Black10_neu.jpg	paradise	1	forehead	2		112	217	1	12	66	C:\Hannah's FYP\White1_neu.jpg	romance	2	forehead	2		212	297	2	02	67	C:\Hannah's FYP\Black14_neu.jpg	smile	1	forehead	2		112	127	1	12	68	C:\Hannah's FYP\White8_neu.jpg	sewage	2	forehead	1		211	164	2	12	69	C:\Hannah's FYP\Black15_neu.jpg	success	1	forehead	2		112	264	1	12	70	C:\Hannah's FYP\White12_neu.jpg	paradise	2	forehead	2		212	208	1	12	71	C:\Hannah's FYP\White9_neu.jpg	love	2	forehead	2		212	153	2	02	72	C:\Hannah's FYP\White7_neu.jpg	garbage	2	forehead	1		211	157	1	02	73	C:\Hannah's FYP\Black10_neu.jpg	sewage	1	forehead	1		111	424	1	02	74	C:\Hannah's FYP\White8_neu.jpg	poison	2	forehead	1		211	201	2	12	75	C:\Hannah's FYP\White16_neu.jpg	success	2	forehead	2		212	202	2	02	76	C:\Hannah's FYP\Black8_neu.jpg	disgust	1	forehead	1		111	314	2	12	77	C:\Hannah's FYP\Black6_neu.jpg	pest	1	forehead	1		111	311	1	02	78	C:\Hannah's FYP\White15_neu.jpg	love	2	forehead	2		212	364	1	12	79	C:\Hannah's FYP\Black9_neu.jpg	vomit	1	forehead	1		111	167	2	12	80	C:\Hannah's FYP\Black14_neu.jpg	pest	1	forehead	1		111	186	1	02	81	C:\Hannah's FYP\Black7_neu.jpg	vomit	1	forehead	1		111	290	1	02	82	C:\Hannah's FYP\Black19_neu.jpg	love	1	forehead	2		112	192	1	12	83	C:\Hannah's FYP\White12_neu.jpg	garbage	2	forehead	1		211	202	1	02	84	C:\Hannah's FYP\Black22_neu.jpg	pest	1	forehead	1		111	265	1	02	85	C:\Hannah's FYP\Black5_neu.jpg	success	1	forehead	2		112	232	1	12	86	C:\Hannah's FYP\Black14_neu.jpg	poison	1	forehead	1		111	193	1	02	87	C:\Hannah's FYP\Black13_neu.jpg	love	1	forehead	2		112	147	1	12	88	C:\Hannah's FYP\Black7_neu.jpg	joy	1	forehead	2		112	141	1	12	89	C:\Hannah's FYP\Black6_neu.jpg	despair	1	forehead	1		111	169	1	02	90	C:\Hannah's FYP\White22_neu.jpg	cockroach	2	forehead	1		211	340	2	12	91	C:\Hannah's FYP\White19_neu.jpg	vomit	2	forehead	1		211	357	2	12	92	C:\Hannah's FYP\White16_neu.jpg	poison	2	forehead	1		211	344	1	02	93	C:\Hannah's FYP\White2_neu.jpg	cockroach	2	forehead	1		211	316	1	02	94	C:\Hannah's FYP\White18_neu.jpg	joy	2	forehead	2		212	165	1	12	95	C:\Hannah's FYP\White23_neu.jpg	joy	2	forehead	2		212	140	1	12	96	C:\Hannah's FYP\White18_neu.jpg	pest	2	forehead	1		211	117	1	02	97	C:\Hannah's FYP\White10_neu.jpg	vomit	2	forehead	1		211	106	1	02	98	C:\Hannah's FYP\White3_neu.jpg	paradise	2	forehead	2		212	184	2	02	99	C:\Hannah's FYP\Black20_neu.jpg	cockroach	1	forehead	1		111	134	1	02	100	C:\Hannah's FYP\White14_neu.jpg	cockroach	2	forehead	1		211	383	2	12	101	C:\Hannah's FYP\Black24_neu.jpg	sewage	1	forehead	1		111	254	2	12	102	C:\Hannah's FYP\Black23_neu.jpg	romance	1	forehead	2		112	330	1	12	103	C:\Hannah's FYP\White20_neu.jpg	love	2	forehead	2		212	219	1	12	104	C:\Hannah's FYP\Black11_neu.jpg	despair	1	forehead	1		111	364	2	12	105	C:\Hannah's FYP\White7_neu.jpg	pest	2	forehead	1		211	247	1	02	106	C:\Hannah's FYP\White1_neu.jpg	disgust	2	forehead	1		211	159	2	12	107	C:\Hannah's FYP\Black12_neu.jpg	garbage	1	forehead	1		111	243	1	02	108	C:\Hannah's FYP\Black19_neu.jpg	sewage	1	forehead	1		111	411	2	12	109	C:\Hannah's FYP\White11_neu.jpg	smile	2	forehead	2		212	348	2	02	110	C:\Hannah's FYP\Black7_neu.jpg	cockroach	1	forehead	1		111	166	1	02	111	C:\Hannah's FYP\White12_neu.jpg	vacation	2	forehead	2		212	657	1	12	112	C:\Hannah's FYP\Black19_neu.jpg	romance	1	forehead	2		112	79	2	02	113	C:\Hannah's FYP\White1_neu.jpg	despair	2	forehead	1		211	214	2	12	114	C:\Hannah's FYP\Black10_neu.jpg	pest	1	forehead	1		111	112	1	02	115	C:\Hannah's FYP\Black9_neu.jpg	love	1	forehead	2		112	173	2	02	116	C:\Hannah's FYP\Black12_neu.jpg	smile	1	forehead	2		112	128	1	12	117	C:\Hannah's FYP\White10_neu.jpg	joy	2	forehead	2		212	325	1	12	118	C:\Hannah's FYP\Black5_neu.jpg	paradise	1	forehead	2		112	290	1	12	119	C:\Hannah's FYP\Black2_neu.jpg	garbage	1	forehead	1		111	224	2	12	120	C:\Hannah's FYP\White14_neu.jpg	garbage	2	forehead	1		211	245	2	12	121	C:\Hannah's FYP\White6_neu.jpg	disgust	2	forehead	1		211	269	1	02	122	C:\Hannah's FYP\White15_neu.jpg	disgust	2	forehead	1		211	220	1	02	123	C:\Hannah's FYP\Black18_neu.jpg	garbage	1	forehead	1		111	205	1	02	124	C:\Hannah's FYP\Black1_neu.jpg	smile	1	forehead	2		112	326	2	02	125	C:\Hannah's FYP\White17_neu.jpg	romance	2	forehead	2		212	179	1	12	126	C:\Hannah's FYP\Black3_neu.jpg	romance	1	forehead	2		112	172	1	12	127	C:\Hannah's FYP\White21_neu.jpg	paradise	2	forehead	2		212	164	1	12	128	C:\Hannah's FYP\White24_neu.jpg	pest	2	forehead	1		211	143	1	02	129	C:\Hannah's FYP\White6_neu.jpg	smile	2	forehead	2		212	76	1	12	130	C:\Hannah's FYP\White18_neu.jpg	vacation	2	forehead	2		212	128	1	12	131	C:\Hannah's FYP\White24_neu.jpg	beauty	2	forehead	2		212	197	1	12	132	C:\Hannah's FYP\Black22_neu.jpg	paradise	1	forehead	2		112	92	1	12	133	C:\Hannah's FYP\White7_neu.jpg	paradise	2	forehead	2		212	115	1	12	134	C:\Hannah's FYP\White14_neu.jpg	paradise	2	forehead	2		212	325	2	02	135	C:\Hannah's FYP\White20_neu.jpg	sewage	2	forehead	1		211	646	1	02	136	C:\Hannah's FYP\Black6_neu.jpg	romance	1	forehead	2		112	141	1	12	137	C:\Hannah's FYP\Black15_neu.jpg	disgust	1	forehead	1		111	273	2	12	138	C:\Hannah's FYP\White5_neu.jpg	despair	2	forehead	1		211	368	1	02	139	C:\Hannah's FYP\White6_neu.jpg	love	2	forehead	2		212	362	1	12	140	C:\Hannah's FYP\White23_neu.jpg	success	2	forehead	2		212	185	1	12	141	C:\Hannah's FYP\White13_neu.jpg	beauty	2	forehead	2		212	171	1	12	142	C:\Hannah's FYP\Black1_neu.jpg	disgust	1	forehead	1		111	574	2	12	143	C:\Hannah's FYP\White24_neu.jpg	vomit	2	forehead	1		211	32	1	02	144	C:\Hannah's FYP\White19_neu.jpg	disgust	2	forehead	1		211	734	1	02	145	C:\Hannah's FYP\Black14_neu.jpg	paradise	1	forehead	2		112	169	1	12	146	C:\Hannah's FYP\Black10_neu.jpg	vacation	1	forehead	2		112	388	1	12	147	C:\Hannah's FYP\Black11_neu.jpg	poison	1	forehead	1		111	422	1	02	148	C:\Hannah's FYP\White5_neu.jpg	beauty	2	forehead	2		212	166	1	12	149	C:\Hannah's FYP\White8_neu.jpg	joy	2	forehead	2		212	257	2	02	150	C:\Hannah's FYP\Black7_neu.jpg	vacation	1	forehead	2		112	134	1	12	151	C:\Hannah's FYP\White12_neu.jpg	disgust	2	forehead	1		211	227	1	02	152	C:\Hannah's FYP\Black15_neu.jpg	garbage	1	forehead	1		111	483	1	02	153	C:\Hannah's FYP\Black16_neu.jpg	despair	1	forehead	1		111	129	1	02	154	C:\Hannah's FYP\White21_neu.jpg	romance	2	forehead	2		212	115	1	12	155	C:\Hannah's FYP\White22_neu.jpg	poison	2	forehead	1		211	193	2	12	156	C:\Hannah's FYP\White11_neu.jpg	romance	2	forehead	2		212	219	2	02	157	C:\Hannah's FYP\Black8_neu.jpg	love	1	forehead	2		112	666	2	02	158	C:\Hannah's FYP\Black20_neu.jpg	vacation	1	forehead	2		112	171	1	12	159	C:\Hannah's FYP\White17_neu.jpg	despair	2	forehead	1		211	230	1	02	160	C:\Hannah's FYP\White4_neu.jpg	joy	2	forehead	2		212	95	1	12	161	C:\Hannah's FYP\White9_neu.jpg	cockroach	2	forehead	1		211	62	1	02	162	C:\Hannah's FYP\Black6_neu.jpg	smile	1	forehead	2		112	342	1	12	163	C:\Hannah's FYP\Black23_neu.jpg	despair	1	forehead	1		111	263	1	02	164	C:\Hannah's FYP\Black16_neu.jpg	cockroach	1	forehead	1		111	286	1	02	165	C:\Hannah's FYP\Black3_neu.jpg	vomit	1	forehead	1		111	147	1	02	166	C:\Hannah's FYP\Black2_neu.jpg	vacation	1	forehead	2		112	247	2	02	167	C:\Hannah's FYP\White24_neu.jpg	vacation	2	forehead	2		212	223	1	12	168	C:\Hannah's FYP\Black17_neu.jpg	vomit	1	forehead	1		111	438	1	02	169	C:\Hannah's FYP\Black21_neu.jpg	disgust	1	forehead	1		111	498	1	02	170	C:\Hannah's FYP\Black16_neu.jpg	joy	1	forehead	2		112	168	1	12	171	C:\Hannah's FYP\Black22_neu.jpg	joy	1	forehead	2		112	193	1	12	172	C:\Hannah's FYP\White21_neu.jpg	despair	2	forehead	1		211	231	1	02	173	C:\Hannah's FYP\White19_neu.jpg	paradise	2	forehead	2		212	213	1	12	174	C:\Hannah's FYP\Black20_neu.jpg	beauty	1	forehead	2		112	130	1	12	175	C:\Hannah's FYP\White3_neu.jpg	poison	2	forehead	1		211	664	2	12	176	C:\Hannah's FYP\Black11_neu.jpg	joy	1	forehead	2		112	1046	1	12	177	C:\Hannah's FYP\Black24_neu.jpg	love	1	forehead	2		112	1473	2	02	178	C:\Hannah's FYP\White4_neu.jpg	pest	2	forehead	1		211	308	1	02	179	C:\Hannah's FYP\White23_neu.jpg	sewage	2	forehead	1		211	77	1	02	180	C:\Hannah's FYP\White21_neu.jpg	disgust	2	forehead	1		211	121	1	02	181	C:\Hannah's FYP\White9_neu.jpg	sewage	2	forehead	1		211	758	2	12	182	C:\Hannah's FYP\Black13_neu.jpg	vomit	1	forehead	1		111	520	1	02	183	C:\Hannah's FYP\Black15_neu.jpg	beauty	1	forehead	2		112	476	1	12	184	C:\Hannah's FYP\Black3_neu.jpg	sewage	1	forehead	1		111	184	1	02	185	C:\Hannah's FYP\White18_neu.jpg	cockroach	2	forehead	1		211	192	1	02	186	C:\Hannah's FYP\White19_neu.jpg	smile	2	forehead	2		212	1191	2	02	187	C:\Hannah's FYP\White4_neu.jpg	garbage	2	forehead	1		211	494	1	02	188	C:\Hannah's FYP\White2_neu.jpg	sewage	2	forehead	1		211	364	1	02	189	C:\Hannah's FYP\White13_neu.jpg	vomit	2	forehead	1		211	103	1	02	190	C:\Hannah's FYP\Black8_neu.jpg	sewage	1	forehead	1		111	403	1	02	191	C:\Hannah's FYP\Black20_neu.jpg	poison	1	forehead	1		111	247	1	02	192	C:\Hannah's FYP\Black21_neu.jpg	cockroach	1	forehead	1		111	212	1	03	1	C:\Hannah's FYP\White11_smi.jpg		2	eyes		1	221	263	1	03	2	C:\Hannah's FYP\Black40_smi.jpg		1	eyes		2	122	1199	2	03	3	C:\Hannah's FYP\White25_smi.jpg		2	forehead		2	212	342	2	03	4	C:\Hannah's FYP\White20_smi.jpg		2	nose		1	231	930	2	13	5	C:\Hannah's FYP\Black46_smi.jpg		1	nose		2	132	741	2	03	6	C:\Hannah's FYP\White38_smi.jpg		2	eyes		2	222	687	2	03	7	C:\Hannah's FYP\White6_smi.jpg		2	forehead		1	211	316	2	13	8	C:\Hannah's FYP\White44_smi.jpg		2	nose		2	232	785	2	03	9	C:\Hannah's FYP\Black41_smi.jpg		1	nose		2	132	281	2	03	10	C:\Hannah's FYP\Black22_smi.jpg		1	nose		1	131	704	2	13	11	C:\Hannah's FYP\Black19_smi.jpg		1	nose		1	131	500	2	13	12	C:\Hannah's FYP\White31_smi.jpg		2	forehead		2	212	665	2	03	13	C:\Hannah's FYP\Black29_smi.jpg		1	forehead		2	112	263	2	03	14	C:\Hannah's FYP\White43_smi.jpg		2	nose		2	232	694	2	03	15	C:\Hannah's FYP\White21_smi.jpg		2	nose		1	231	275	2	13	16	C:\Hannah's FYP\White29_smi.jpg		2	forehead		2	212	226	2	03	17	C:\Hannah's FYP\Black11_smi.jpg		1	eyes		1	121	363	1	03	18	C:\Hannah's FYP\White10_smi.jpg		2	eyes		1	221	406	2	13	19	C:\Hannah's FYP\White17_smi.jpg		2	nose		1	231	367	1	03	20	C:\Hannah's FYP\White1_smi.jpg		2	forehead		1	211	1089	2	13	21	C:\Hannah's FYP\White45_smi.jpg		2	nose		2	232	341	2	03	22	C:\Hannah's FYP\Black30_smi.jpg		1	forehead		2	112	528	2	03	23	C:\Hannah's FYP\White19_smi.jpg		2	nose		1	231	444	1	03	24	C:\Hannah's FYP\Black16_smi.jpg		1	eyes		1	121	1476	2	13	25	C:\Hannah's FYP\Black21_smi.jpg		1	nose		1	131	335	1	03	26	C:\Hannah's FYP\Black9_smi.jpg		1	eyes		1	121	627	1	03	27	C:\Hannah's FYP\White5_smi.jpg		2	forehead		1	211	474	1	03	28	C:\Hannah's FYP\White23_smi.jpg		2	nose		1	231	344	1	03	29	C:\Hannah's FYP\Black20_smi.jpg		1	nose		1	131	244	1	03	30	C:\Hannah's FYP\Black17_smi.jpg		1	nose		1	131	660	2	13	31	C:\Hannah's FYP\White2_smi.jpg		2	forehead		1	211	258	1	03	32	C:\Hannah's FYP\White12_smi.jpg		2	eyes		1	221	418	1	03	33	C:\Hannah's FYP\Black6_smi.jpg		1	forehead		1	111	1098	1	03	34	C:\Hannah's FYP\Black31_smi.jpg		1	forehead		2	112	262	2	03	35	C:\Hannah's FYP\Black47_smi.jpg		1	nose		2	132	285	1	13	36	C:\Hannah's FYP\Black8_smi.jpg		1	forehead		1	111	235	1	03	37	C:\Hannah's FYP\White40_smi.jpg		2	eyes		2	222	451	2	03	38	C:\Hannah's FYP\White28_smi.jpg		2	forehead		2	212	283	1	13	39	C:\Hannah's FYP\Black37_smi.jpg		1	eyes		2	122	529	2	03	40	C:\Hannah's FYP\Black18_smi.jpg		1	nose		1	131	429	2	13	41	C:\Hannah's FYP\White30_smi.jpg		2	forehead		2	212	1029	2	03	42	C:\Hannah's FYP\Black12_smi.jpg		1	eyes		1	121	660	1	03	43	C:\Hannah's FYP\White46_smi.jpg		2	nose		2	232	290	2	03	44	C:\Hannah's FYP\Black2_smi.jpg		1	forehead		1	111	552	2	13	45	C:\Hannah's FYP\Black5_smi.jpg		1	forehead		1	111	250	2	13	46	C:\Hannah's FYP\Black1_smi.jpg		1	forehead		1	111	226	2	13	47	C:\Hannah's FYP\White35_smi.jpg		2	eyes		2	222	4258	2	03	48	C:\Hannah's FYP\Black13_smi.jpg		1	eyes		1	121	1007	1	03	49	C:\Hannah's FYP\Black28_smi.jpg		1	forehead		2	112	430	2	03	50	C:\Hannah's FYP\Black33_smi.jpg		1	eyes		2	122	254	2	03	51	C:\Hannah's FYP\Black39_smi.jpg		1	eyes		2	122	373	2	03	52	C:\Hannah's FYP\Black15_smi.jpg		1	eyes		1	121	968	1	03	53	C:\Hannah's FYP\White48_smi.jpg		2	nose		2	232	393	2	03	54	C:\Hannah's FYP\White13_smi.jpg		2	eyes		1	221	779	2	13	55	C:\Hannah's FYP\White33_smi.jpg		2	eyes		2	222	156	2	03	56	C:\Hannah's FYP\White42_smi.jpg		2	nose		2	232	519	2	03	57	C:\Hannah's FYP\White3_smi.jpg		2	forehead		1	211	387	2	13	58	C:\Hannah's FYP\White16_smi.jpg		2	eyes		1	221	893	2	13	59	C:\Hannah's FYP\Black4_smi.jpg		1	forehead		1	111	1265	1	03	60	C:\Hannah's FYP\Black14_smi.jpg		1	eyes		1	121	1093	1	03	61	C:\Hannah's FYP\White34_smi.jpg		2	eyes		2	222	177	2	03	62	C:\Hannah's FYP\White32_smi.jpg		2	forehead		2	212	292	2	03	63	C:\Hannah's FYP\Black44_smi.jpg		1	nose		2	132	274	2	03	64	C:\Hannah's FYP\White37_smi.jpg		2	eyes		2	222	232	2	03	65	C:\Hannah's FYP\Black45_smi.jpg		1	nose		2	132	225	2	03	66	C:\Hannah's FYP\White36_smi.jpg		2	eyes		2	222	185	2	03	67	C:\Hannah's FYP\Black43_smi.jpg		1	nose		2	132	1116	2	03	68	C:\Hannah's FYP\Black32_smi.jpg		1	forehead		2	112	454	2	03	69	C:\Hannah's FYP\White8_smi.jpg		2	forehead		1	211	541	1	03	70	C:\Hannah's FYP\Black42_smi.jpg		1	nose		2	132	456	2	03	71	C:\Hannah's FYP\White14_smi.jpg		2	eyes		1	221	215	2	13	72	C:\Hannah's FYP\Black23_smi.jpg		1	nose		1	131	609	2	13	73	C:\Hannah's FYP\White22_smi.jpg		2	nose		1	231	593	2	13	74	C:\Hannah's FYP\Black7_smi.jpg		1	forehead		1	111	114	2	13	75	C:\Hannah's FYP\Black38_smi.jpg		1	eyes		2	122	144	1	13	76	C:\Hannah's FYP\White15_smi.jpg		2	eyes		1	221	596	2	13	77	C:\Hannah's FYP\White41_smi.jpg		2	nose		2	232	237	1	13	78	C:\Hannah's FYP\White26_smi.jpg		2	forehead		2	212	310	2	03	79	C:\Hannah's FYP\Black27_smi.jpg		1	forehead		2	112	131	1	13	80	C:\Hannah's FYP\White47_smi.jpg		2	nose		2	232	40	1	13	81	C:\Hannah's FYP\White18_smi.jpg		2	nose		1	231	1041	2	13	82	C:\Hannah's FYP\Black26_smi.jpg		1	forehead		2	112	438	2	03	83	C:\Hannah's FYP\Black48_smi.jpg		1	nose		2	132	1238	2	03	84	C:\Hannah's FYP\White9_smi.jpg		2	eyes		1	221	115	2	13	85	C:\Hannah's FYP\Black36_smi.jpg		1	eyes		2	122	585	2	03	86	C:\Hannah's FYP\Black35_smi.jpg		1	eyes		2	122	3962	2	03	87	C:\Hannah's FYP\White27_smi.jpg		2	forehead		2	212	474	2	03	88	C:\Hannah's FYP\White7_smi.jpg		2	forehead		1	211	1552	1	03	89	C:\Hannah's FYP\Black24_smi.jpg		1	nose		1	131	1416	2	13	90	C:\Hannah's FYP\Black25_smi.jpg		1	forehead		2	112	1126	1	13	91	C:\Hannah's FYP\Black10_smi.jpg		1	eyes		1	121	576	1	03	92	C:\Hannah's FYP\White39_smi.jpg		2	eyes		2	222	178	2	03	93	C:\Hannah's FYP\White24_smi.jpg		2	nose		1	231	549	1	03	94	C:\Hannah's FYP\Black34_smi.jpg		1	eyes		2	122	128	2	03	95	C:\Hannah's FYP\White4_smi.jpg		2	forehead		1	211	125	1	03	96	C:\Hannah's FYP\Black3_smi.jpg		1	forehead		1	111	154	1	0